trial,stimulus,outcome,choice,rt,trace,timeout,w_s,w_n,threshold_a,t,noise_std_dev,dt,max_time
0,go,Hit,1,0.5200,"[0.0, 0.00919601282769793, -0.0003075586780892387, -0.016342689406274043, 0.012292550224205938, 0.004642463299103547, 0.01072051562065354, 0.0411667430349729, 0.05183648845143056, 0.08819140627557877, 0.11203774749333999, 0.07793033019675441, 0.04484213548909294, 0.03883026466973202, 0.05204424315447602, 0.06098802553032306, 0.06204144992814392, 0.09367578400891372, 0.12517686816345594, 0.1113573184086282, 0.12248767143411844, 0.09368011479083711, 0.117421650323028, 0.12059087921827341, 0.13166431000943102, 0.1153612533885563, 0.12394852776214978, 0.17892335704292814, 0.21264196941566257, 0.20810331363167703, 0.21452866546018004, 0.22646522986886725, 0.2676801371824408, 0.32877262330248047, 0.3497775039445453, 0.335907437330728, 0.3690401532832493, 0.40192511635338235, 0.4263232467011102, 0.43881249948703893, 0.4757181236610067, 0.4641969253978436, 0.5024431377340475]",False,0.8000,0.4000,0.5000,0.1000,0.2000,0.0100,2.0000
1,nogo,Correct Rejection,0,2.0000,"[0.0, -0.016121348514929842, -0.019266367277807023, -0.033520458997387016, -0.008631526270377648, -0.04379606556821933, -0.04957570163102176, -0.07071887497884335, -0.09513068711454337, -0.0929260381671363, -0.07117132536798515, -0.09215038160045445, -0.11845359073633566, -0.10917847065819045, -0.07012166069787917, -0.038353640717700095, -0.04697867840693592, -0.05840924713893699, -0.05838463234909451, -0.06671159188534259, -0.10295245461383784, -0.09557263858211237, -0.1106554145758035, -0.12051225807373897, -0.09181340274081587, -0.08586267144497862, -0.03185032884435279, -0.0338120600603724, -0.022052759908576976, -0.015649835127822496, 0.0033357448321162005, 0.013939572976691881, -0.0058508388572316855, -0.03430652736677725, -0.033359680197332174, -0.033468760374148754, -0.07732892800606006, -0.07917873946605336, -0.09732094152158939, -0.07480934193427768, -0.03300848247014879, -0.04843776371077094, -0.07988473373041038, -0.08564536202446957, -0.09753753335077725, -0.12087527412907956, -0.11536077866951021, -0.12807777123965305, -0.14472358480773748, -0.1644885369412361, -0.17988646602975494, -0.16663336841456797, -0.16910286322719625, -0.20090667063153217, -0.22167059845239348, -0.2154181794586484, -0.24954493495922583, -0.20413731323652887, -0.19334422473675664, -0.18314199642347254, -0.22140311711700375, -0.24659714084920661, -0.25329641869074204, -0.28781791100728443, -0.2941924799719398, -0.3181399139728124, -0.3137743080240964, -0.3329849876974781, -0.32827787255863417, -0.3521584617237211, -0.3188447535122514, -0.32460313025397314, -0.34866198226009393, -0.34193264007075164, -0.3455793309448567, -0.3561446825944807, -0.3586850250058464, -0.35770224772014764, -0.3689658943950355, -0.3959775547015201, -0.4175567595874304, -0.4317056943779543, -0.4231274337029544, -0.42811636810768683, -0.45766311794745446, -0.4375478890631731, -0.4131362625262091, -0.42430599782683814, -0.46896281580965027, -0.49258296424093306, -0.5027979341138511, -0.483122316300626, -0.494090267685288, -0.4785200663402879, -0.4920528843355887, -0.47591714295846815, -0.507351041526728, -0.5338866585420068, -0.5355693646547485, -0.5407738736806706, -0.5536574186642532, -0.5633383841789398, -0.5898524581687811, -0.5751732338070047, -0.5894977140282386, -0.587016306363974, -0.5724580683369072, -0.5794861734573434, -0.6110108134586012, -0.6328864715762391, -0.6151074056595551, -0.6025708441161273, -0.5852561843661184, -0.5920593599105675, -0.5751409767007416, -0.5989481521136197, -0.6334289084134721, -0.6405709732469006, -0.6543664195471389, -0.6255693036101228, -0.625243723282786, -0.6341946302397032, -0.6457379672424757, -0.6394312494541884, -0.6788549488792541, -0.6706878713547015, -0.6215327307520225, -0.6523116470064493, -0.6491216333620965, -0.6850313275586744, -0.6973783993841618, -0.7049666852224485, -0.7310729627428298, -0.7255173192214467, -0.7436019492457729, -0.7524177372821993, -0.7324402511142548, -0.7475208121436213, -0.7227608911854153, -0.7569082801204213, -0.7741696717356112, -0.7790566767503792, -0.7966968556164818, -0.8045988134656512, -0.8069116931389079, -0.8022439955713472, -0.7828357573313689, -0.7603986326512941, -0.7458695274540529, -0.754009728681629, -0.7533363491000089, -0.7472667654866577, -0.7261242123636743, -0.7387491702246272, -0.7731511596905981, -0.7858649154092808, -0.7887263963113107, -0.842118851947809, -0.8750830475682492, -0.854725402953269, -0.8437806039788802, -0.8384527264020373, -0.831351481071096, -0.8303452480368574, -0.8675664000744667, -0.9152306653072085, -0.9017790401973496, -0.9260895811378154, -0.9350255406516758, -0.9836357832897735, -0.9973211014760397, -0.9914417754999097, -1.0094063634129542, -1.0030467784165604, -1.000988659850759, -0.9731700578164624, -0.9721041538376007, -0.9699026139221564, -0.9230503924984638, -0.9435331096913319, -0.9526442886961694, -0.957290730784339, -0.97033055196813, -0.9468523456123215, -0.9286760014103412, -0.9210896252651726, -0.8903083719464365, -0.8946546476056286, -0.8727752265714463, -0.8851593665617841, -0.8941880652936574]",True,0.8000,0.4000,0.5000,0.1000,0.2000,0.0100,2.0000
2,go,Hit,1,0.9200,"[0.0, 0.015592763809145451, -0.009652100303365527, 0.032994932483072156, 0.054079689010543296, 0.08209665325069493, 0.06970390695823123, 0.06422522025984705, 0.0759050289889169, 0.060425325042790246, 0.0463581114852053, 0.05261419651702648, 0.053473055100339555, 0.05815639003011368, 0.023661213185344546, 0.053927732033026185, 0.04378440205582587, 0.05714747018641324, 0.04797802990311429, 0.059572097029636964, 0.04515103022605042, 0.06610136873842617, 0.06446528499225176, 0.07472028507434424, 0.09083110881961362, 0.11099584132445903, 0.10534200093214931, 0.10834088896771456, 0.14806272843425067, 0.17285913706545675, 0.15945512560106317, 0.15936358873155088, 0.16548778453126778, 0.16441287515681227, 0.16252082072858132, 0.19212072149467976, 0.21965229937957048, 0.1981546350291763, 0.2060747290633769, 0.20373525285007393, 0.16164648734578577, 0.21521854166480767, 0.2145884855958942, 0.20466327735515993, 0.182953671299568, 0.21040440076476788, 0.22423900532731308, 0.2267062288682843, 0.23890806045251664, 0.2251349186426822, 0.2503389513057511, 0.2728108908309387, 0.27982361752771967, 0.26915291401761005, 0.25453522914917565, 0.2720905667987474, 0.2982232123695995, 0.32953849628902965, 0.3332850726558675, 0.305212572997239, 0.306709983484276, 0.3073278510248916, 0.3039495252045663, 0.3363739855999495, 0.33925031728489213, 0.33263260050352406, 0.3703660845858755, 0.38608448950496055, 0.37875641236701707, 0.3727788068756216, 0.36353224195712874, 0.366661355414713, 0.36828102748481256, 0.3895247303753286, 0.4087558606746976, 0.41230606951638366, 0.3876449027846392, 0.3967221476721713, 0.39687599985830524, 0.41797983801741784, 0.47233961111181216, 0.4859740902327593, 0.5103967697875255]",False,0.8000,0.4000,0.5000,0.1000,0.2000,0.0100,2.0000
3,go,Hit,1,0.7200,"[0.0, 0.007912875152897014, 0.0312587336864749, 0.08090148725595459, 0.0798727107319614, 0.08488480675726702, 0.1036275709115987, 0.09613643813469969, 0.08369794480777447, 0.07290362240574222, 0.03742758909116585, 0.02352822764424955, 0.03310546114936998, 0.030440109080676243, 0.024137329144544896, 0.05727446379468296, 0.07116876959164836, 0.12070679834102038, 0.12572543659597918, 0.11400085923181537, 0.1206534140690472, 0.11532602841244347, 0.12015473359643235, 0.1479961179836373, 0.11760228696577876, 0.1173196045767794, 0.15562606069161303, 0.13200737678256266, 0.15364962737500104, 0.1829786658366255, 0.196044813663326, 0.2256446470099545, 0.2163710626215111, 0.2238365841127306, 0.23817431517631787, 0.2527074048290172, 0.2826320347094984, 0.3022836151854635, 0.2925261186493959, 0.32180148374048306, 0.3163966878919752, 0.3237570650389077, 0.35908019260018326, 0.329272535419219, 0.3464104145045141, 0.36295300308972117, 0.3902906040105202, 0.3886925211638612, 0.3744419837661335, 0.39191782637745687, 0.42471555580931813, 0.42349374904409665, 0.4278862058266604, 0.41878103753349016, 0.4257137895486575, 0.4153466523402974, 0.41690899834351786, 0.4737745971158532, 0.458846301058751, 0.46918885306188324, 0.4746125819779614, 0.4897369223004262, 0.5193707484625913]",False,0.8000,0.4000,0.5000,0.1000,0.2000,0.0100,2.0000
4,go,Hit,1,0.8200,"[0.0, 0.024813749123963266, 0.03953594900734061, 0.029660060461365014, 0.05861923337198845, 0.11543726760377954, 0.128231882309137, 0.12663067493521243, 0.09622435846553379, 0.07152954396790534, 0.06588920356703537, 0.056001658573677116, 0.07208946217321768, 0.0917908184515542, 0.0933848157667113, 0.08256590639186276, 0.06262874755589608, 0.0890082708569207, 0.09297928518882927, 0.07195960225166464, 0.1058241319857182, 0.1298434183707093, 0.11293351459094926, 0.14657905947855185, 0.1591822184603335, 0.16158704486947956, 0.20895602443865333, 0.16859977956947653, 0.19861354223483657, 0.23170755269216417, 0.24627255855944252, 0.2533375217118823, 0.25575904138775807, 0.2500220288349322, 0.2920356598191209, 0.27762706374945917, 0.3044689269958278, 0.2707340742120101, 0.27693905807737784, 0.32452191544495995, 0.30349111572515575, 0.28522448518206356, 0.26836387577727894, 0.24706554962631744, 0.2868464695463456, 0.3020127906071428, 0.3277976102827716, 0.3177427569029309, 0.32952480425571756, 0.3026156627005592, 0.26554180099266955, 0.2735022370008485, 0.277987883152465, 0.26853051375449777, 0.26980686258611447, 0.29955045196545615, 0.30514570950954517, 0.3022290600341083, 0.31587059331868567, 0.34808630155944187, 0.3772197642636451, 0.3830756722409204, 0.3830245401141379, 0.37806846496187074, 0.3976507694915831, 0.3873624477162785, 0.3983918695229061, 0.4258831306374463, 0.4296412260966791, 0.43335469326582504, 0.46624844479237937, 0.44266112020926596, 0.508489088911418]",False,0.8000,0.4000,0.5000,0.1000,0.2000,0.0100,2.0000
5,go,Hit,1,0.4300,"[0.0, 0.03643718323146958, 0.057007007587450635, 0.07678865855769489, 0.12328452303487941, 0.12831666609490242, 0.0935256537777137, 0.06368712443281033, 0.08897408775568211, 0.105442528682306, 0.0961419946724367, 0.13345244668761158, 0.1416420124873967, 0.17499846185927076, 0.157057349219943, 0.17475262337831668, 0.21083363588873436, 0.23860240689194362, 0.2319972692379859, 0.25316033984105, 0.26469546991827453, 0.27938662384660706, 0.3211616449066402, 0.32229457109003357, 0.31224717365079113, 0.33745831171766333, 0.3515692285192037, 0.37190386511764495, 0.40882027427093137, 0.4329649064673698, 0.465757526044241, 0.44775908123272407, 0.4661683493409386, 0.5122348161306118]",False,0.8000,0.4000,0.5000,0.1000,0.2000,0.0100,2.0000
6,go,Hit,1,1.0000,"[0.0, 0.018022527566708045, 0.07716692162440622, 0.08133757618807715, 0.08337429667723739, 0.08254883597421282, 0.07052398904615721, 0.042778077457349545, 0.041859795761397575, 0.06057996442844095, 0.09244913520720711, 0.09861469515495452, 0.09452229595595138, 0.09020600739345694, 0.06648564997154524, 0.07287467105421405, 0.09183643709827656, 0.10132712716215783, 0.09859671270877196, 0.13301674246005352, 0.15187623608166956, 0.15530862478936647, 0.1769615227326824, 0.18363669991309203, 0.1683173294585402, 0.15463717184033324, 0.1787800785745994, 0.16637660734050855, 0.19834512502600488, 0.176807525941445, 0.18022738906329033, 0.17149469287648922, 0.1906404456715041, 0.18746807069759497, 0.18523687545655676, 0.1794204402723553, 0.16496632869872271, 0.15161191084056214, 0.15907954027710883, 0.1679590000476572, 0.15161295719118933, 0.15747032822402432, 0.18281130461579534, 0.19056924226742847, 0.21757508840805836, 0.1991086748526919, 0.21227256160613772, 0.24009106843565053, 0.22519115604310042, 0.22630892337772018, 0.2936856843098365, 0.29015586810358507, 0.27446997687191965, 0.2783839894897077, 0.290946874256574, 0.2905594490894548, 0.3229568618215136, 0.3342487893550281, 0.3630496786947526, 0.36541468011545275, 0.3616221548173152, 0.36999102414885854, 0.41726887701462134, 0.4110168222431922, 0.4223615820853485, 0.4163160472928559, 0.4267223538579683, 0.41597649351426536, 0.4404835620863835, 0.4699320206171314, 0.48244359297772016, 0.46523893652328085, 0.4432903474208085, 0.44443925087283503, 0.4326907892030203, 0.4349057883500976, 0.44614780837249085, 0.45988159938741857, 0.45119664680757626, 0.4524071103859415, 0.4644576513368918, 0.4466114462694372, 0.4491792568308718, 0.43640872249275436, 0.4460429126922879, 0.45884606838354564, 0.4685358321491967, 0.46422769753614734, 0.47836762204759853, 0.4780263295977727, 0.5178089269181786]",False,0.8000,0.4000,0.5000,0.1000,0.2000,0.0100,2.0000
7,go,Hit,1,0.7900,"[0.0, -0.025408116238210744, -0.013210443856253192, 0.04108865013796273, 0.053525322842906634, 0.08027094213598628, 0.07409562951920243, 0.05037491375305724, 0.08110803415982966, 0.08047919567171902, 0.11755471338184986, 0.16515807786221354, 0.17970259528367602, 0.20179247727506983, 0.20025035967320115, 0.17741563871421676, 0.15396077872867112, 0.13950740146320773, 0.1407450134051873, 0.13029453821016648, 0.12118017612867563, 0.14021112784294837, 0.15886827650729157, 0.15212312987041898, 0.14937800700224269, 0.16106121970162168, 0.14725258441143965, 0.12380022337139673, 0.12259837867429914, 0.10047795894919939, 0.09182427460641272, 0.10190881158318017, 0.09061007376320146, 0.1089477520946989, 0.11986186025106739, 0.12175511158953807, 0.1339854534557106, 0.1518062153547488, 0.15695442245643637, 0.15400961661591478, 0.14057366421342143, 0.16696735014137534, 0.1619220600154399, 0.15708935831737014, 0.19533858552991012, 0.22110359230071858, 0.20872178211941333, 0.23864691879529518, 0.2863193818954066, 0.29221779828809685, 0.30951112074432974, 0.30994298609590315, 0.31171058629038256, 0.3156828337376779, 0.3269749564409815, 0.2988588508822853, 0.31764504065950544, 0.33218726375565233, 0.3512413486347308, 0.35361704832731855, 0.354397545680288, 0.3453298763056187, 0.377956606406917, 0.3990296731496474, 0.4209085875104867, 0.4347662430040431, 0.46713417327674384, 0.46878101984670595, 0.4938362000114195, 0.5485914934742645]",False,0.8000,0.4000,0.5000,0.1000,0.2000,0.0100,2.0000
8,go,Hit,1,0.5000,"[0.0, 0.04302125416688253, 0.08287892484271507, 0.05942469426059712, 0.07501805746820954, 0.10486390668197687, 0.1622418607036606, 0.1633992137392959, 0.13047789119800932, 0.18264086438298657, 0.2080621607360537, 0.2037603177910197, 0.17063590296047748, 0.19339554735699405, 0.21552636025890304, 0.2669686909580117, 0.2879158513995932, 0.33147700888902654, 0.33778837613924834, 0.3739877802232998, 0.3805950822015638, 0.3711628780186731, 0.378111423178417, 0.37790831947889625, 0.4161517762094737, 0.44073330877261185, 0.435295637209391, 0.4577347964426214, 0.45723912275808165, 0.45112558847875117, 0.4142235766636488, 0.396587770838343, 0.41843515393832365, 0.44927979118191996, 0.450644705759066, 0.42185365193995855, 0.41757487800566023, 0.40755158652180823, 0.44218019394752295, 0.47795304202588385, 0.5362100606146322]",False,0.8000,0.4000,0.5000,0.1000,0.2000,0.0100,2.0000
9,go,Hit,1,0.4500,"[0.0, -0.004718518682432353, 0.027170131364668594, 0.03564796725614497, 0.04704427744378316, 0.031996996878447016, 0.0844306845787306, 0.09572560243614218, 0.10941309379144151, 0.13022241207456256, 0.10329421122738544, 0.10914191851109636, 0.12212949899493614, 0.13377479041641063, 0.17242435142179052, 0.1833877492736399, 0.21488703660774972, 0.22598327354463088, 0.2179601647518485, 0.24747656297282106, 0.23332048452415127, 0.2584356724382324, 0.28494645319551737, 0.27975294160095954, 0.27237843662832506, 0.28223253961167916, 0.28205295480950937, 0.281709967249128, 0.28661771974781364, 0.2965927713166222, 0.3305790186134056, 0.3757151238557067, 0.41168709604382003, 0.43147894451930013, 0.48465868913754345, 0.5054687043995391]",False,0.8000,0.4000,0.5000,0.1000,0.2000,0.0100,2.0000
10,go,Hit,1,0.8200,"[0.0, 0.03398548833406165, 0.04085525792072949, 0.074338384542195, 0.1187362686612013, 0.11046622844679384, 0.07793209900611346, 0.09324050065613425, 0.08787426540477751, 0.055748764664642604, 0.05978065675309764, 0.05701173215227359, 0.05892668461008392, 0.049451533462902576, 0.11171402287563838, 0.09723477752192353, 0.08818760284941322, 0.13778371976379392, 0.1400074503871271, 0.1672261457125684, 0.15638162883909046, 0.13510268241498985, 0.19310234638900114, 0.17465171570520557, 0.19080614327037834, 0.17224260093825608, 0.1846152100688587, 0.19219651002217403, 0.18230371301872147, 0.1658148780120303, 0.16928915018357563, 0.17230943811300828, 0.20989931805051368, 0.2365937056384788, 0.20903892363092774, 0.2436833976089051, 0.2658901941763787, 0.2868983993329448, 0.2774281131355417, 0.30146429941975594, 0.2820752762269831, 0.2643418834675857, 0.25927798777361033, 0.31746269053146875, 0.32139626253414144, 0.3001759170840449, 0.31735817860554993, 0.3240755395538557, 0.30397742402113426, 0.3293377969702781, 0.32677769095768766, 0.3722358790564488, 0.3489932600566832, 0.34241981094717083, 0.36900404657885977, 0.35829061467016315, 0.37472795069731857, 0.36285383661807374, 0.34508637528810016, 0.3664197106453089, 0.35129359283500494, 0.3573739480497427, 0.32998899349244504, 0.3823644562429976, 0.39997479337124386, 0.42098113031158274, 0.4451227569424215, 0.43524431006594455, 0.4421427546604747, 0.4970831626397988, 0.4921457266158882, 0.4911316674265089, 0.5514815193031676]",False,0.8000,0.4000,0.5000,0.1000,0.2000,0.0100,2.0000
11,nogo,Correct Rejection,0,2.0000,"[0.0, 0.0202532728318276, 0.035842353899985156, 0.016264713059773585, -0.001867841524880516, 0.01917860633031036, 0.04183359940513934, 0.07400980942316285, 0.07481396690190327, 0.032470433722818125, 0.02844602625490653, 0.06458817018658054, 0.08211864220297518, 0.09040310152356014, 0.03783964567860072, 0.04883025029898945, 0.05394582576304442, 0.04951945484460091, 0.048421916651834644, 0.02762623806311588, -0.015160538866795584, -0.039602113050595654, -0.04385935478050057, -0.01939074112129201, -0.032570790432012116, -0.03705790636658616, -0.03249516135726116, -0.02911197374996758, -0.00823552949498045, -0.02107884454020254, -0.02137541507969623, -0.039722852937363134, -0.027103372261019734, -0.04211400314675709, -0.05433559312388759, -0.07939850661950121, -0.10175220732596574, -0.09151979254102818, -0.10234522793055333, -0.11306647605954155, -0.1217424502568763, -0.10723416570708472, -0.14354160155446916, -0.1303708727456594, -0.13428525078167913, -0.13069550832294685, -0.14536422576376443, -0.1442653582485123, -0.1258836616646685, -0.14432427841696568, -0.17183407923099972, -0.20266417153035016, -0.22983829266807204, -0.25479036578943143, -0.25127626125639624, -0.2775292117112234, -0.3012090064350783, -0.31448821937624843, -0.3344212168033343, -0.3419416957681729, -0.3697678652081972, -0.3915930030309397, -0.36805581151981837, -0.38203373950445596, -0.37770714885581547, -0.36068340927891124, -0.35421706289719695, -0.36031347090754545, -0.3520119471504023, -0.3175605995409115, -0.30325244866105355, -0.32167660080589133, -0.315710157178912, -0.3263808865694996, -0.3662935115370305, -0.37455668117774743, -0.4220029567342394, -0.41009342971041896, -0.4014563193681463, -0.36916550609415305, -0.35222355535110056, -0.3503764022099144, -0.33164409995973815, -0.35323800765727753, -0.36181201992592527, -0.3443381062022965, -0.3444233294825119, -0.33314369135154326, -0.3189565728195898, -0.35038980192002817, -0.3614654819441211, -0.345626421094196, -0.35135336207472806, -0.329969728466229, -0.3150911366442486, -0.3306764851005431, -0.3151474831081974, -0.35629137930921023, -0.3753940219110867, -0.38009353732170686, -0.35301425679401105, -0.3166981212087837, -0.32091789386092656, -0.32560870400855124, -0.3170844134845448, -0.30885210576917405, -0.35874272839103605, -0.3754410484538112, -0.39136368423643575, -0.3751603080435101, -0.3848088585722855, -0.38510853817419466, -0.3757617607464142, -0.36314956376512797, -0.39521754975319434, -0.3933545470336166, -0.39918797478618917, -0.4498479022244228, -0.4736028860346636, -0.48982053792364255, -0.489973967973371, -0.4640528394111286, -0.4869428366205588, -0.5056109980537559, -0.5027506535561436, -0.5224711239732852, -0.5287711964612021, -0.4988413921633651, -0.5031256893822358, -0.47879443432977453, -0.4871286632592571, -0.4845715816967009, -0.48208231915790195, -0.4681418076543953, -0.48159536361358896, -0.4629032068540766, -0.4662757293704036, -0.46140533089086355, -0.45648245449487523, -0.42966085927939884, -0.44749650072696606, -0.45648735975972665, -0.4487021819193323, -0.5018855653387366, -0.4986850105416051, -0.5023049686824964, -0.49384463090428005, -0.4971403877048131, -0.49412547703664794, -0.5116251815243278, -0.5319813100056855, -0.5409825457344287, -0.5713248591480966, -0.5503297329364655, -0.5345863940409215, -0.5408286506068583, -0.5532480581315422, -0.569708855098106, -0.5368275002283723, -0.5380339583003597, -0.5181628729686045, -0.532673274223747, -0.5391847269838679, -0.5340763429613037, -0.5391377823821984, -0.5173824956852674, -0.5416554626874569, -0.5330499042579842, -0.4846191918060264, -0.4571750666681303, -0.4557503844390098, -0.43896704530499464, -0.4378737744061554, -0.41614181422870755, -0.4393000439111848, -0.4257935828858508, -0.40731557012541436, -0.4245173952125496, -0.424705208251801, -0.4177825476737977, -0.43828128019342866, -0.4525864762623087, -0.4715851096469593, -0.46892345459005863, -0.4604784017787663, -0.4573371208601294, -0.44642337204176546, -0.4626746481603492, -0.45752842745732547, -0.4580138938499745, -0.4547971359159665]",True,0.8000,0.4000,0.5000,0.1000,0.2000,0.0100,2.0000
12,go,Hit,1,1.0500,"[0.0, -0.02119289641283001, -0.03217985810494203, -0.041564101775208515, -0.02254661345252499, -0.05753511734750622, -0.057276287742054864, -0.06849452734851758, -0.051923503561567705, -0.0182871132796475, 0.010338408009178623, -0.002323016588641976, -0.0035163326252872374, -0.027486780438627352, -0.020141550663071453, -0.058755889463605604, -0.052895670766239605, -0.06966873934974355, -0.06830493567069039, -0.05330339896084257, -0.05970935504712273, -0.04752320604448122, -0.040926426362955466, -0.02090406751876101, -0.01258904583510016, 0.018959013692316718, 0.06297401592466687, 0.08011472522062743, 0.08384747358573677, 0.07906449319274025, 0.12063025610354197, 0.13514433476359303, 0.15809520976867497, 0.11066554546378901, 0.14666635479636358, 0.19555767850573808, 0.2161818433251077, 0.21013725974348516, 0.23316649681945445, 0.23021579664046377, 0.20656781085418285, 0.21091499156357454, 0.2200350036105062, 0.22803425764155305, 0.1838283992349073, 0.17349098309790165, 0.16432846192315287, 0.1808432134306735, 0.18565786815392926, 0.18026938943081666, 0.18481299054417002, 0.21356412990026585, 0.21883418891724865, 0.25397825623642545, 0.24330809956452093, 0.23920382575541035, 0.21568445259373983, 0.19450653845803245, 0.19232819945914625, 0.23867767136779985, 0.2302073677287379, 0.27653329095633544, 0.25821815977273577, 0.2563140636103511, 0.2747015013554697, 0.27292648249012325, 0.3146043579972311, 0.3170968835452401, 0.33994134755248856, 0.331516062748961, 0.30912273807994445, 0.30264141143043516, 0.3009177493137442, 0.3263470054494607, 0.34199023613225316, 0.33676360081064205, 0.35053049947776777, 0.3820752981985903, 0.384080841508778, 0.39049190789659227, 0.39492677597608067, 0.4015187827926961, 0.43968697524103456, 0.4548830679326807, 0.4253551048927472, 0.47556085885012167, 0.46677796173913577, 0.44666453420023955, 0.44051603905952913, 0.43831406991333677, 0.44280132843871645, 0.45239469234622903, 0.44986033142619414, 0.468566566115004, 0.4918349418666629, 0.5252775470465929]",False,0.8000,0.4000,0.5000,0.1000,0.2000,0.0100,2.0000
13,go,Hit,1,0.5500,"[0.0, 0.07021241091680563, 0.08782861995462696, 0.10297357651172975, 0.10514639399895546, 0.11002732949114061, 0.149523429393808, 0.17096404317800415, 0.19253813210739074, 0.21581429650526585, 0.22799794664573023, 0.20395252658672536, 0.19774224820538794, 0.19569512701968286, 0.19713006595176583, 0.2073179700431202, 0.22122421147623852, 0.21387609070596444, 0.22160405149625736, 0.24381824677118422, 0.24789951302989796, 0.26110129572970375, 0.26600708977556287, 0.31000874056702477, 0.30673663669795936, 0.34584851533832467, 0.3433169237218595, 0.36207655694344465, 0.34781860903153405, 0.3332348753203067, 0.3127340820684657, 0.3310320647357144, 0.3190937410059838, 0.3287100351624829, 0.32176533070431124, 0.3597953107967118, 0.3803653987639872, 0.39431093103976245, 0.4290072762352293, 0.4247830412578482, 0.4442406545407427, 0.4711958911754753, 0.46827994713509113, 0.49525376081706246, 0.49716809878808826, 0.5408558252758331]",False,0.8000,0.4000,0.5000,0.1000,0.2000,0.0100,2.0000
14,go,Hit,1,0.7100,"[0.0, 0.02398623955906875, -0.0026450503718860943, -0.015482524770897923, 0.009867593542360036, 0.034366245251508845, 0.06806849658093712, 0.06222348306148594, 0.08817904119836303, 0.0933349990631573, 0.09117697801882921, 0.07725377823068154, 0.08560040351695551, 0.09185186659385468, 0.09004460674683051, 0.12216394125846282, 0.1457437939179938, 0.1631006319195101, 0.15602479190088983, 0.12410722998343378, 0.13105488614647712, 0.15089966465086485, 0.1701432941119406, 0.16722238194011305, 0.16686940833983063, 0.20524688981480987, 0.20021692555998394, 0.17630932840800997, 0.23307458461023223, 0.25290853740441144, 0.234898913444519, 0.29397781921780863, 0.2848303904875341, 0.3240182691735618, 0.33887398587383577, 0.32745518405501084, 0.3452744736312331, 0.308119702238879, 0.3379253720808855, 0.372364702829017, 0.3907417067679857, 0.40984380813671895, 0.42766377710639497, 0.43621429880538215, 0.44141320147800456, 0.43701874942795677, 0.4600530507901383, 0.4298152057215286, 0.45262562996269645, 0.47984102011809343, 0.4735416392144717, 0.46600046016347774, 0.49721140878515785, 0.4875347706848982, 0.4960372255128152, 0.49058511434073615, 0.4598714388716109, 0.46585936711602305, 0.4883527865045394, 0.47526545357344485, 0.4797810509710963, 0.5006713230383955]",False,0.8000,0.4000,0.5000,0.1000,0.2000,0.0100,2.0000
15,go,Hit,1,0.6500,"[0.0, 0.004300201754534741, 0.02662095329310722, 0.060561682981562795, 0.07521398049728738, 0.09520319080489584, 0.09223869310666241, 0.11814940931025308, 0.11187037647577182, 0.12605697510933891, 0.13338263659190067, 0.12963538554054072, 0.10206062131697308, 0.10646098530958036, 0.08404859908795716, 0.10007137600980164, 0.12163244541051729, 0.1342472837208206, 0.13160047943561026, 0.16595513112355303, 0.15662868142592482, 0.17368960867344413, 0.2128943333045622, 0.2087838886626384, 0.21322005051408846, 0.21863323512185287, 0.2271998108965718, 0.20235791063140388, 0.23259251287840352, 0.2478259776242795, 0.22886085766667866, 0.2261532398582362, 0.2435505047203281, 0.28638362146349583, 0.30902002572074444, 0.34355546245648233, 0.3548824118711083, 0.40277913773570256, 0.408435212500725, 0.43477645668405523, 0.45453614858050734, 0.46057209414118105, 0.4781604081298857, 0.4721066209583976, 0.44558176887118334, 0.44013467042816523, 0.47459238310709845, 0.46395318969087784, 0.45276011564252205, 0.48482103686848554, 0.48870448419261237, 0.4810773539309094, 0.47132200637504224, 0.46716594399963857, 0.47975393910477393, 0.5250341880345066]",False,0.8000,0.4000,0.5000,0.1000,0.2000,0.0100,2.0000
16,go,Hit,1,0.6500,"[0.0, -0.0002898367136119455, 0.007787056217697588, 0.04858383568653622, 0.04325390389969175, 0.03725845121190019, 0.021876156732308655, 0.02510278289625403, 0.012282251808808799, 0.04658129993616706, 0.05712289508912553, 0.04350386281717104, 0.050758668158249906, 0.08194076781384688, 0.07719344630200134, 0.0795489835645664, 0.10183970013525145, 0.10089368595820725, 0.13131813443297355, 0.12280102631986183, 0.1515419009618492, 0.17510030491362438, 0.20793938983591437, 0.2310935274870523, 0.17882964039126653, 0.1875714161684207, 0.19490208699783265, 0.19134298107029085, 0.19455770655068305, 0.22020811275468077, 0.24012483170825286, 0.2424651371416853, 0.21070680444372009, 0.2316277941729548, 0.25032466380253765, 0.2389990020564826, 0.24272540018216626, 0.22257144289602623, 0.2704113779978966, 0.28328317812745335, 0.32911480688433187, 0.3465055385271338, 0.36039255049980506, 0.3513306145423703, 0.3333072993475948, 0.34604246871734934, 0.31435510725831406, 0.33195379011834947, 0.32908420801049604, 0.3632557166404287, 0.39137335461581585, 0.40175339822458284, 0.4401432608447566, 0.46505709847688664, 0.49138743252433875, 0.5036476243232809]",False,0.8000,0.4000,0.5000,0.1000,0.2000,0.0100,2.0000
17,go,Hit,1,0.5600,"[0.0, -0.0034803709437111995, 0.04445038133265354, 0.0376896544245666, 0.02952236925653254, 0.05728492614519906, 0.09543376522020337, 0.09870490954525009, 0.147651943192868, 0.15173115433745235, 0.1447323297971888, 0.13582726316159197, 0.1267290640218352, 0.12691809613680644, 0.1712419520507934, 0.17820962485302919, 0.17580200912591795, 0.1659136501840881, 0.15356681493383464, 0.1497079839125299, 0.18222266464114467, 0.1645524650700598, 0.20794473737489097, 0.21452629743512172, 0.24747619900383402, 0.22513981135307742, 0.24283221605908933, 0.24144507599128825, 0.2449453131721682, 0.24942335143661978, 0.2791557511097982, 0.27448453976231385, 0.2810881692745335, 0.31784994021932206, 0.3210440488462352, 0.3156737801086817, 0.3392215677920251, 0.34050052730434643, 0.3787805138307169, 0.3822713922317062, 0.40537855132765765, 0.43114345512902313, 0.4384483226722173, 0.45818964560838005, 0.4744706412749206, 0.4861179162065023, 0.5130183847208745]",False,0.8000,0.4000,0.5000,0.1000,0.2000,0.0100,2.0000
18,go,Hit,1,0.9800,"[0.0, 0.03621325903756766, 0.05218721363218487, 0.052918515955904404, 0.08062940686511177, 0.09242734254827466, 0.12074877788462093, 0.12139363420247559, 0.14432557755809095, 0.13305165981238698, 0.15565888945066603, 0.15712112191421715, 0.11010751148307917, 0.11371656375331886, 0.09644808231266824, 0.11053030599763028, 0.11317198660951834, 0.1158825089326387, 0.13020389394342977, 0.151109468660666, 0.15784856592097182, 0.16337296815641492, 0.19038738416952272, 0.20483539841198747, 0.21994775781828257, 0.2399873240886848, 0.23923144114642148, 0.26001957473021803, 0.25954395835836974, 0.2985440075922817, 0.2856874609981188, 0.2883048453063937, 0.25977702549319276, 0.261820314352855, 0.2797269013438983, 0.2941368371404887, 0.2942021576511603, 0.28378199356048134, 0.2837838037867533, 0.2456915405815263, 0.2546233810783497, 0.24230533526032855, 0.2700196616584975, 0.27664264083357665, 0.2867015875833048, 0.292712179314846, 0.2953393907041754, 0.3009813919557633, 0.3216060941790882, 0.3050923690864518, 0.28270542329094844, 0.2956497370642461, 0.3051877711203886, 0.30605200554393547, 0.28793597962661405, 0.3332582328547861, 0.3565860933368647, 0.32042849557212727, 0.30960987306347315, 0.28132858807563776, 0.33902493179054116, 0.3469944015268128, 0.358984753752213, 0.36112831977029475, 0.37520197452893034, 0.3817460724192255, 0.4142408843235844, 0.42134706237341296, 0.4401762771431813, 0.43443395818935887, 0.4331146756258106, 0.4125479794386763, 0.3784612791314025, 0.36510933359605, 0.348228779035769, 0.39019261959941237, 0.4045577602693517, 0.411770784720732, 0.3905625174958482, 0.3930131205637369, 0.39922620985825713, 0.4238922422396454, 0.42590307058853927, 0.44353426770908805, 0.4718849545477589, 0.4745566111665488, 0.47346954396715135, 0.49097460058538356, 0.5126386741967008]",False,0.8000,0.4000,0.5000,0.1000,0.2000,0.0100,2.0000
19,nogo,Correct Rejection,0,2.0000,"[0.0, 0.00364642143336137, -0.004570647637047022, 0.012318488840303695, 0.003529814015332101, -0.01939435750000676, -0.010361879500659641, -0.04975758973087314, -0.08572789412286153, -0.07650045746147591, -0.05562114723637515, -0.11501505699938608, -0.11112607284060477, -0.11560668361824017, -0.12468337235101366, -0.13793885610867315, -0.1422243922754355, -0.1656778573678661, -0.16074435104854667, -0.18784176343904105, -0.16452617017498977, -0.178844691143148, -0.20042537617356015, -0.18125188023839747, -0.1846842929341861, -0.18846937332943614, -0.1688363560233737, -0.13396235125073158, -0.132664860218971, -0.1138114034161364, -0.10118223572538235, -0.0920921841770342, -0.08406209974944547, -0.11192174932420271, -0.10539396503656778, -0.16501397145119706, -0.16769132893917446, -0.1623580610415323, -0.19078182849566042, -0.21071203961045548, -0.2479676404772248, -0.24762078484602382, -0.23095029615587054, -0.22682257919777052, -0.24624223982050697, -0.2595795173393805, -0.2642680645505837, -0.26808660614940605, -0.24704322787737915, -0.24673278039753938, -0.2616669374867312, -0.23666782098917905, -0.24820928467553405, -0.2548199267692977, -0.23797471165333442, -0.23615400238144935, -0.25770296898502076, -0.2508192826241824, -0.2550201588360722, -0.2875832202987013, -0.3338718363892534, -0.32021047594019686, -0.3370170519980014, -0.3033071986085355, -0.2776734445275491, -0.28408145556926895, -0.2675403188557159, -0.3021825559356616, -0.296141249748652, -0.3201780334848078, -0.3171594883273643, -0.2981028179301545, -0.30926396334565914, -0.33425953804283104, -0.3288535720430376, -0.32634390446253486, -0.316909173084578, -0.30669753428894714, -0.3504822844185078, -0.3512220927623873, -0.37144099830662225, -0.3638991473356187, -0.3373689292995061, -0.35417155615935436, -0.34347072212777224, -0.3731543970685608, -0.36995603617622574, -0.36193836934513385, -0.35736523148696187, -0.3474885301132285, -0.3381535141181712, -0.354751668670049, -0.353928685771123, -0.3276742676034897, -0.3308928032185831, -0.3113408203327905, -0.3067809011926321, -0.33689169013582215, -0.31621879598134045, -0.32368056741393075, -0.33184580590779933, -0.32882338384473375, -0.31376237680171615, -0.3102887775764188, -0.30867221769453745, -0.31445512426591826, -0.34030368116588205, -0.32244839381166324, -0.31843713259760503, -0.32683254283136703, -0.2999852505898499, -0.2742015161658778, -0.28081978732772456, -0.2800269208557886, -0.3178980116584183, -0.3426943642321614, -0.3536297687239139, -0.34835618222614756, -0.32976314819164426, -0.31411939666431515, -0.2887869184811184, -0.2552915954336873, -0.2551351303305257, -0.2476601816732498, -0.22753114521895956, -0.24286123063779394, -0.25826065653277536, -0.2676557637549198, -0.26350857986265364, -0.27125366467907364, -0.27295508530420964, -0.2998065926232805, -0.30021310436237, -0.29987432867000186, -0.28598634556498803, -0.27516398364948125, -0.26777941509587605, -0.2989734882475958, -0.31644896623380975, -0.33093642667281875, -0.3614877381591278, -0.3686099895913621, -0.3771307858728242, -0.3711540294608196, -0.37685740096653203, -0.3876242618690817, -0.39807168239351115, -0.4002552381693168, -0.41352855411267125, -0.44782662968657316, -0.44741531581806554, -0.40181666451793446, -0.41232179190826596, -0.391414335797198, -0.40220831734268003, -0.41770072695453125, -0.4244370610876006, -0.4102943444319607, -0.41878980040654695, -0.43992322994326716, -0.42104076241430144, -0.4291420423234233, -0.39071138230417973, -0.4027043058360714, -0.4287903831939032, -0.4314821148407132, -0.4018123359522776, -0.43594185810623753, -0.40334849936433664, -0.41227371982232275, -0.43210991067265436, -0.41252431714949256, -0.4053101769431761, -0.4121443572487526, -0.43110955771795834, -0.4317129873136312, -0.42994439310920124, -0.4039867429787471, -0.42173061978994386, -0.4340068310853113, -0.42264292454737906, -0.4414052700683822, -0.429343533672272, -0.43662468830202666, -0.4262029098734335, -0.44573926646803597, -0.4379787272655533, -0.44711620693043863, -0.4594428673996906, -0.4092971536194597, -0.40382670631529327]",True,0.8000,0.4000,0.5000,0.1000,0.2000,0.0100,2.0000
20,go,Hit,1,1.1100,"[0.0, 0.012633571510195288, 0.006069416133959907, -0.011273208858628977, -0.050934934906621196, -0.03247092980640648, -0.01950719713038038, -0.0006987232381659818, -0.000970832012417407, 0.013274122172482696, -0.013017165562612064, -0.03221393398184695, 0.009542986443902737, 0.00778936409417035, 0.005848698574643497, -0.003532865006067353, 0.007860344744517108, 0.010900397898301516, 0.01855074964233923, 0.016533188229076026, 0.007989414111304327, 0.013232076129279444, 0.003741300206900021, -0.01848476543211331, -0.0237297598596204, -0.008880516287224811, -0.021820543487359456, -0.035547701825530284, -0.013526605908364776, -0.021072753740612717, -0.020127568665966523, 0.0043999286418048185, -0.01072634336164285, 0.021731502180656632, -0.026088372878800264, 0.015572019295981381, 0.010393501093914452, 0.02968628696859535, 0.03618894362080027, 0.050172706045734, 0.040687552772275315, 0.0741632881094412, 0.07563213350960497, 0.07665551653205241, 0.1053289569379589, 0.14385963488055703, 0.15874633685879083, 0.14439201435064897, 0.15293659591617803, 0.12181489965601378, 0.13331825992959762, 0.15112207437452163, 0.165735639830348, 0.19557481492478312, 0.18408419246606708, 0.20474051226666543, 0.2139996267005824, 0.1939722015151162, 0.19998606036745703, 0.17745415734040046, 0.21325938205909045, 0.20928012435425639, 0.22452077764338318, 0.184348932775035, 0.21253329366817578, 0.17923715389070846, 0.18555849143181677, 0.19256228004422968, 0.19088426104804343, 0.18591637019972734, 0.18837282456954407, 0.16966001116400575, 0.18747486123005416, 0.16183188792219272, 0.21047362625135246, 0.2319303636091654, 0.2447623797647639, 0.25689106758465086, 0.2519455436995029, 0.27045832421317484, 0.24548621180368954, 0.26917458129395316, 0.24434570948694806, 0.2994743742463669, 0.2957721749177933, 0.3089907593120818, 0.3087140486686126, 0.3133829979192288, 0.36397476883772395, 0.4056452680912309, 0.41240966985047944, 0.4408388339861475, 0.41310321176119186, 0.45325312511601074, 0.4812535916148391, 0.48952114298028243, 0.49623624652173676, 0.4805491197823902, 0.4915059078601478, 0.4915190654537143, 0.4909941485210407, 0.5199381540572598]",False,0.8000,0.4000,0.5000,0.1000,0.2000,0.0100,2.0000
21,go,Hit,1,0.6200,"[0.0, 0.0020812712068567782, 0.0110013981231297, 0.010616526254772243, 0.02786899668337116, 0.03459384469731544, 0.027183171251868907, 0.005383618873768838, 0.022030246593827008, 0.0075803472830204, 0.043667608347231573, 0.05052220316316334, 0.06586836732918636, 0.0423008850706414, 0.06605604563977859, 0.08609022778771458, 0.11798712927032297, 0.16339686845552404, 0.16528069268802908, 0.162579922177543, 0.15601130561119367, 0.14651675135044379, 0.15259433745115777, 0.1777062465811721, 0.19054683377174084, 0.17953607865924107, 0.18786218683776312, 0.19581452022635, 0.2446515452378549, 0.2625926616132641, 0.2814993850403886, 0.27357342162635934, 0.305910986552259, 0.25455396528900726, 0.2615611361463479, 0.27526362382947317, 0.28413473929633537, 0.2916636219092873, 0.31655192325450643, 0.34953122689769606, 0.36261761147414595, 0.35650524074320694, 0.35170602384748084, 0.3673142782173688, 0.39919812528496706, 0.4067812309305747, 0.4131061777622715, 0.41690718671767096, 0.44068792134264223, 0.46066789486797777, 0.44952166343154165, 0.4784746183497003, 0.5129033754663963]",False,0.8000,0.4000,0.5000,0.1000,0.2000,0.0100,2.0000
22,go,Hit,1,0.6900,"[0.0, 0.0016563350466200309, 0.01163014155118063, 0.01854042678904546, 0.04069663822359934, 0.02199347859399413, 0.06030860495814865, 0.08209332905966339, 0.06790835687185229, 0.10849586951211451, 0.1341242246481008, 0.15772557062504952, 0.14624022300828377, 0.10723534539011449, 0.11546277546042592, 0.1258636710939468, 0.1539128757155533, 0.18282777465515912, 0.2164938439706823, 0.22247680322850355, 0.22778579419425518, 0.23620348868452715, 0.24653167335286622, 0.24307468831344983, 0.23773578944884907, 0.2710728973900405, 0.2542834770865054, 0.20855876821824498, 0.22454117703858606, 0.19713779275514065, 0.2057920688356966, 0.20728398132605436, 0.19434289571252325, 0.2021111530168294, 0.1894107296558631, 0.19817338640960477, 0.206454056432157, 0.2085726920707872, 0.19328530033011784, 0.21141225008090075, 0.2306707050952646, 0.25844528922395266, 0.270698999457501, 0.26379034249431293, 0.2659348737056793, 0.2647080643509329, 0.26411012971472014, 0.22874047923654062, 0.26039783779207765, 0.2348075418853544, 0.2524970495460035, 0.2921499816089529, 0.3244014480276202, 0.3476259221284205, 0.3659395775473669, 0.3781873739099876, 0.3969373665405694, 0.4316755845548963, 0.4832230056184119, 0.5094897036691741]",False,0.8000,0.4000,0.5000,0.1000,0.2000,0.0100,2.0000
23,go,Hit,1,0.5200,"[0.0, 0.012855045330608775, 0.020774172795586507, 0.038899915496454815, 0.009054795774501842, 0.04955124036941883, 0.07751543485681993, 0.11129801743330814, 0.11802794141590783, 0.12176880023296986, 0.12553051026160475, 0.15023024202210633, 0.14936360450978386, 0.17118020593730948, 0.18087584981745397, 0.19406531175164687, 0.21333500395683624, 0.23832876788045876, 0.2473413344188083, 0.24208598265495984, 0.2522691063291148, 0.2588978410899503, 0.2320853540660022, 0.24870408601746283, 0.300029989266724, 0.3141083946817104, 0.34940534742437, 0.36952906858640144, 0.3582455925453156, 0.3626380124107816, 0.36113793300420294, 0.3526194682540014, 0.3584029420018575, 0.39369663840415636, 0.4076717697623107, 0.40181579229749753, 0.4044998535954124, 0.4388537291246847, 0.44366126786881743, 0.4853037515708498, 0.4862439090200831, 0.4941857608279984, 0.5145078195497031]",False,0.8000,0.4000,0.5000,0.1000,0.2000,0.0100,2.0000
24,go,Hit,1,0.8400,"[0.0, -0.005520935287755173, 0.020608163841410822, 0.0045090592332598, 0.029775186105403854, 0.03243435414486855, 0.07003241227447075, 0.08131368595560891, 0.10759391620465283, 0.08863750781163479, 0.08108902110987987, 0.07855870779606511, 0.09355440717151883, 0.07970526504432297, 0.04862479035168772, 0.0483321894270207, 0.05018084499887202, 0.046900767126409865, 0.03407837905887102, 0.06551156617767426, 0.061822031862809344, 0.07701833958256814, 0.08231948800581759, 0.08517251668692942, 0.10920979563724016, 0.10371493055758903, 0.09956202502128128, 0.13607123494559378, 0.11834522519498278, 0.12051341068310485, 0.12127351428162172, 0.14196455408655118, 0.15199395232233742, 0.118289836946626, 0.13340862489253685, 0.13992970789706155, 0.1369072327194426, 0.17345541084567473, 0.19156148002862022, 0.23478746603093284, 0.2260989628708904, 0.25728896890745934, 0.262932072714443, 0.24213188625419674, 0.26874696529816194, 0.27138080344913207, 0.2463502788759703, 0.27440646601228985, 0.26757571513746514, 0.2875192984990143, 0.27872331033221165, 0.2860285468058858, 0.2839928062236427, 0.28496005118260737, 0.30969254749456604, 0.31163911554722484, 0.3256394433401645, 0.34724959183267423, 0.38209998689833646, 0.4259222976698842, 0.43848063554749334, 0.44707078436996356, 0.4193635915671347, 0.4063767633432032, 0.3953279964901963, 0.41526596350082035, 0.4054601328206503, 0.44466396216683707, 0.4339854715074016, 0.4637703781752012, 0.4641951399496676, 0.45193195633749467, 0.46283540422172, 0.4828560139202017, 0.5156591353983406]",False,0.8000,0.4000,0.5000,0.1000,0.2000,0.0100,2.0000
25,go,Hit,1,0.8000,"[0.0, 0.002790604278623104, 0.026621808089483744, 0.02433591001791614, 0.024555557879698556, 0.05574790554148581, 0.05688849499208462, 0.08901152476801594, 0.10771002074119046, 0.11445739291539087, 0.09208683943018672, 0.08000105140098823, 0.08760750864038852, 0.12496869795668566, 0.13903199208575032, 0.1288016474291103, 0.0682433255838319, 0.10655521874375863, 0.09113769707237823, 0.11627961864866464, 0.1266115450036489, 0.14205718039733178, 0.15341810840023803, 0.13408639310384202, 0.12479225658365826, 0.16290122809589558, 0.17470038516366124, 0.19436451315907438, 0.19653076651893822, 0.23543037214480741, 0.2681767116106697, 0.27414130779554946, 0.31875764532630874, 0.33286910791613317, 0.3028501057522027, 0.2977889574712863, 0.3197330429067531, 0.3426767830990438, 0.3249487071225541, 0.334577419668606, 0.33358254746645105, 0.31639430365727234, 0.3267579991631273, 0.2947429328787764, 0.32573036139628087, 0.34836824986083204, 0.35644671325144267, 0.3690737277870715, 0.3928525362676221, 0.3896075391683094, 0.39462801594009306, 0.4111958358420373, 0.39326681881672887, 0.37539645707816144, 0.3575557165881094, 0.3518355910233945, 0.37545058859430835, 0.4006330688552541, 0.4286130442793138, 0.40837005543033145, 0.4264388914393385, 0.4633981063992132, 0.48480483980923406, 0.48985251660341556, 0.48442968119853, 0.4966063739802859, 0.4819640845278319, 0.49139322102400573, 0.4684691672984805, 0.497978069908328, 0.5171547554245791]",False,0.8000,0.4000,0.5000,0.1000,0.2000,0.0100,2.0000
26,go,Hit,1,0.6400,"[0.0, 0.0006171098418103413, 0.023207229212803104, 0.06278567419361714, 0.04973488087579209, 0.06073716120481107, 0.07952617218797256, 0.06730198804907252, 0.06445815776272742, 0.05280833114512586, 0.05082486488704275, 0.05121050909520149, 0.061927944693036814, 0.04653392039161111, 0.07998693128017278, 0.09621265623769693, 0.08319270807532557, 0.10766765827232772, 0.12529350589797733, 0.12606251367825747, 0.15309184239834137, 0.15674852610012338, 0.13800172078084313, 0.1597743703852404, 0.17363945318409427, 0.177584239883149, 0.2125258611743646, 0.2009221012408844, 0.21483346989103375, 0.21125857859840477, 0.24230215216201317, 0.264088417564213, 0.30628274788106324, 0.31524388695300437, 0.30090494190562694, 0.2855141001800927, 0.2795151361849613, 0.26157466790268646, 0.277376891665119, 0.2640277673327264, 0.24733402914775676, 0.25763428140397654, 0.3027266806754547, 0.35879627643769946, 0.3743935835812282, 0.3979742910833194, 0.397188880036612, 0.3987735590732906, 0.40204319457453536, 0.40920282669047586, 0.42857101448657015, 0.457021540889258, 0.4510479213487301, 0.494812849692184, 0.5062026528508053]",False,0.8000,0.4000,0.5000,0.1000,0.2000,0.0100,2.0000
27,go,Hit,1,0.8500,"[0.0, 0.014894640653232784, 0.0407665181499836, 0.04816554484083463, 0.03932514371966655, 0.05393031357134067, 0.04688207115716194, 0.05092862626514784, 0.07827156502822996, 0.06868670587284856, 0.08433792703337785, 0.051576905203231445, 0.03966585870235302, 0.04231536745563315, 0.042460278733980575, 0.0400656012223512, 0.08146929883890154, 0.12241652204191919, 0.11472416632559995, 0.10218283004898393, 0.07908759870024275, 0.09829800317249633, 0.11683633336260767, 0.13989128044953328, 0.14061203639696787, 0.15333510853855184, 0.1583148116373811, 0.15687922374586066, 0.16125268769215698, 0.14674303857817206, 0.17828214727489378, 0.20978553916067533, 0.2219091704965085, 0.2400211886952352, 0.25591650519517917, 0.2619557756390103, 0.2720453357135047, 0.2919096166259589, 0.3026114805740603, 0.3222768032222778, 0.32557269090515406, 0.3592156713392723, 0.35565256744761986, 0.34644228528730797, 0.3424003710382341, 0.3363047739725224, 0.3391553403244346, 0.3042740955170632, 0.29114070104120016, 0.28270819796409336, 0.30892927175858537, 0.3183850201629961, 0.3189942275343435, 0.33488146389278367, 0.34352017465331297, 0.3469842503741518, 0.3574285082530321, 0.36746455884268414, 0.3416149710106038, 0.3447381836020442, 0.3700770150145397, 0.35087626655073195, 0.3538840806556127, 0.36574526566707644, 0.3567370602651778, 0.3713555166983652, 0.4242507927748717, 0.4453271716604564, 0.43174743173551483, 0.433822645312758, 0.43296540409590745, 0.4423524964712758, 0.44116898730148146, 0.44847654445675106, 0.46975819731286833, 0.5176065051183281]",False,0.8000,0.4000,0.5000,0.1000,0.2000,0.0100,2.0000
28,go,Hit,1,0.6300,"[0.0, 0.04492889637824137, 0.06791137459708894, 0.05456337393387216, 0.059691634210330094, 0.07787890279864887, 0.0459395885166913, 0.08490074997259289, 0.0950166297453302, 0.08062799275841427, 0.11642498751204974, 0.15587738277486216, 0.1392231204578628, 0.1547547603754437, 0.1433636874911916, 0.15690490407220348, 0.1483676978936141, 0.14281599800025674, 0.1645184457673705, 0.19079101815132268, 0.19052048540226457, 0.22851717823660905, 0.2577963914007171, 0.2601194564828882, 0.24524826908040817, 0.2491486582550187, 0.26499572496809914, 0.25475138968891975, 0.25730353654211197, 0.24422848706901412, 0.2557226781670492, 0.2675814374529303, 0.27112654878581494, 0.26955522299571366, 0.2724638187658139, 0.2901029518142286, 0.30670933386775145, 0.3167174928163019, 0.2955077296055049, 0.2954824847984158, 0.324946294920237, 0.35416395672275236, 0.31934875328805334, 0.31708611141742793, 0.32146684084360255, 0.3651570160306261, 0.34392247417442423, 0.39438239904685024, 0.43784460555883487, 0.4633952403425972, 0.4554782304624649, 0.4327316357551026, 0.4613539720441303, 0.5336348635873032]",False,0.8000,0.4000,0.5000,0.1000,0.2000,0.0100,2.0000
29,nogo,Correct Rejection,0,2.0000,"[0.0, 0.0028591742668368256, -0.027245199893704993, -0.004880352693304755, 0.013245470377096148, 0.004196822170026702, -0.007890380682766845, -0.008288144055857968, -0.011364280101587245, -0.022915329859249503, -0.009079439270947185, -0.01368936618478587, -0.04262737469210417, -0.04363813339004482, -0.049620842317891795, -0.04804053995173061, -0.012054482792716224, 0.003188845285294504, -0.007959006358911443, -0.027777367505532936, -0.022233140875043175, -0.014249511968652925, -0.025566426183058426, -0.03227032491484725, -0.04602016735695845, -0.04255398200129315, -0.03747821853181897, -0.04850479979722558, -0.05337176367316577, -0.0708795895144206, -0.1003902533786964, -0.08374102762112756, -0.05100685206229839, -0.07529639529582348, -0.08148189541916241, -0.05098611165739295, -0.020551831616726884, -0.007886831337336671, 0.02466383263559494, -0.004089555510584823, -0.0425578205117368, -0.04083125578601493, -0.04935378689819544, -0.028212552899312446, -0.09626385655743325, -0.09054449096439984, -0.09886058373555093, -0.07114142548318628, -0.09819871376168975, -0.13151611333810587, -0.12982300995916943, -0.11617731768915128, -0.13222785341441498, -0.1375897327820188, -0.1396639636591783, -0.1457196742151666, -0.14441751877219955, -0.1493984057424552, -0.14587623231297528, -0.1426867981829445, -0.1668219958878677, -0.1820596553689428, -0.19042872012831646, -0.20905552023144636, -0.1943413524520999, -0.18678749453480334, -0.23763376140371328, -0.21201097232897698, -0.2069939054683216, -0.219901638926812, -0.22507605495845323, -0.22416949240906123, -0.24801627738558604, -0.25228593241793584, -0.2552531550147164, -0.23879391724973179, -0.22325644928921615, -0.2242473957515135, -0.2521242739353024, -0.29771362452697375, -0.33206175294200174, -0.29348194045849063, -0.27014421477318434, -0.30663410654373296, -0.31078253807842515, -0.29267487067955755, -0.2749578623502521, -0.25458163447178345, -0.27204325450259104, -0.24590091945421955, -0.2640715334632213, -0.28767384379666766, -0.28186954994936714, -0.2700000113150496, -0.26775079621135145, -0.2272693802015166, -0.23026890371523312, -0.21291470256999998, -0.24721557373127495, -0.2664939817796405, -0.29442811553641196, -0.3025165449564948, -0.32158968203747407, -0.3563701317103715, -0.3673305907650011, -0.34575098033607127, -0.34961786990809024, -0.3266259338444835, -0.3174506639336931, -0.35088577745029625, -0.36691980347584, -0.38500895147648967, -0.38382545782190197, -0.4146659353778621, -0.4193328356030801, -0.3957382963453327, -0.39711001938168655, -0.4053573695894469, -0.3887963823191251, -0.399490308892209, -0.4353934398894326, -0.4775712671010154, -0.4824918981488573, -0.48947728551496866, -0.4610433846765484, -0.43631933728564926, -0.4459953279173916, -0.4411639900059107, -0.48108439795521474, -0.46240154594271315, -0.48428114198643485, -0.4787338608207731, -0.44823853085979043, -0.4676973569386142, -0.480455000969619, -0.500523217666711, -0.4827763309865313, -0.47408078852733704, -0.4830461226474481, -0.4818068946582798, -0.4801194312970323, -0.465893989891573, -0.48373625223479655, -0.49962787416089727, -0.4952291183934015, -0.5163901802241249, -0.5130792528764067, -0.5335366773229009, -0.5745684240563563, -0.5556966689648387, -0.5390145029196645, -0.5497248186449654, -0.5400860599402413, -0.5871870969285311, -0.6297797085223964, -0.5997576517971938, -0.6034490586987459, -0.6244647067708732, -0.6196752023931665, -0.6137784328694011, -0.6228883468174443, -0.6267934591918164, -0.6270196176174196, -0.6340255432466643, -0.6032396358465927, -0.5761813593920959, -0.5719060280774814, -0.5714591021679845, -0.5936734503703177, -0.5813238397022421, -0.5729189408439838, -0.6146805178998566, -0.6292734067870551, -0.6588700494712458, -0.6780106668815378, -0.6942048579813199, -0.6700842198824256, -0.6948375786769664, -0.6871908302909426, -0.6759532700062291, -0.684167731582632, -0.6680781193971994, -0.6663507712674878, -0.6636691848310524, -0.6650977799724827, -0.6852937555657983, -0.6575129827346889, -0.6572067511520706, -0.6489492262786273, -0.655600074518536, -0.6762351398517369]",True,0.8000,0.4000,0.5000,0.1000,0.2000,0.0100,2.0000
30,go,Hit,1,0.7100,"[0.0, 0.02906774434397625, 0.07127338767986904, 0.03389261260542329, 0.03177355883130367, 0.004737156700228978, 0.009811243682294487, 0.0141579148452111, 0.014231734317972942, 0.007702490812279132, 0.02347143508363629, 0.02314479225643107, 0.02159666467216806, 0.0168633007433428, 0.0010941757476536501, -0.012001841776348856, 0.011148388029608065, 0.011675252826711436, 0.04206652555991773, 0.031050171442421247, 0.0719821875486262, 0.055124845410039536, 0.05702541102172868, 0.05169301559774296, 0.04310754843384607, 0.03732917366342119, 0.06077260330020423, 0.057708700141666236, 0.05685648490282355, 0.08120965889652873, 0.1027866660254155, 0.12406744636071022, 0.09903458689135594, 0.06848372536305178, 0.11509169071997205, 0.153887636256437, 0.1778567875167769, 0.19395297338227735, 0.1705133946992439, 0.22133937997427677, 0.25202252460546887, 0.24455163583176523, 0.26353110630436616, 0.2719018227359348, 0.2855721550060456, 0.28205130146882856, 0.28268051617575174, 0.27412151605553325, 0.29796830462717877, 0.29192302112999136, 0.3144815820251992, 0.33315506694673425, 0.3395508768271345, 0.34210959281070996, 0.35932584904520004, 0.36062098312864654, 0.38676686302157104, 0.4471364533085818, 0.4515031629211436, 0.4708043790538374, 0.49455063452350395, 0.5088663582901781]",False,0.8000,0.4000,0.5000,0.1000,0.2000,0.0100,2.0000
31,go,Hit,1,0.6000,"[0.0, -0.02659606468532555, -0.016247959478741768, 0.0065837333477287915, 0.0012102814525680478, 0.03457195633442499, 0.05908714661053598, 0.055533828699824365, 0.06713974657923567, 0.07330737027861826, 0.050300745035398824, 0.07480820847060826, 0.09920081108665964, 0.11783715763089123, 0.13037482691964097, 0.14781206498905114, 0.1483313805783766, 0.15036327889735748, 0.18381358056882596, 0.16789842084358864, 0.17036819624286947, 0.13426890146811427, 0.1499340211816875, 0.17580511348196634, 0.1620701523002124, 0.18904618778669538, 0.19707744660865978, 0.1939510875236158, 0.20915608206021083, 0.24259459692763838, 0.24826844320060204, 0.2709156817198728, 0.2624565137718846, 0.27982509649662995, 0.2912304481998103, 0.30378852499875514, 0.32230599639921387, 0.3137137856553013, 0.33767234537930274, 0.34321233380111904, 0.35999496830814814, 0.3925527395297954, 0.4034080217040987, 0.4114999330326936, 0.4196979235325627, 0.43129702900850075, 0.4344651096384351, 0.4660195724410165, 0.473330676074622, 0.46687051847301725, 0.5242783711525052]",False,0.8000,0.4000,0.5000,0.1000,0.2000,0.0100,2.0000
32,go,Hit,1,0.8300,"[0.0, -0.004552594680029949, 0.0035525547798982617, 0.013898773231922857, 0.010600914135471285, 0.006695256529955276, 0.018602304279519866, 0.010634356315755853, -0.004493291035704703, 0.013969561955720338, -0.0010563081820848287, 0.010784664446455108, 0.0021060430174387954, 0.012076477509426614, 0.03126761476281216, 0.005148806916210592, -0.01101644660079111, 0.03987881787183503, 0.0899243426465107, 0.10330920642109767, 0.10614877710025036, 0.11482784111489516, 0.10425151053015486, 0.09015424478477525, 0.1113540220174017, 0.10958732375839426, 0.09008096119903994, 0.06956642836564057, 0.06668647956369647, 0.06405006165905623, 0.06823725214889577, 0.08645990739040155, 0.0688002266104527, 0.10286077917390445, 0.12550595912839985, 0.12508206288072124, 0.12243309035322725, 0.13545700284286782, 0.16101977412735713, 0.17745108074329347, 0.19536469210602875, 0.210326560896222, 0.22155636612080323, 0.23849157720117126, 0.24595448264926492, 0.2498686509987301, 0.25049932608047126, 0.23681504875225196, 0.23581954882793457, 0.24644447353797627, 0.2378565245570552, 0.2380806874171578, 0.2610804388471808, 0.28073980233594636, 0.2860156618631226, 0.3162650877256761, 0.33418656257885493, 0.3703794724601154, 0.4236347790079569, 0.3968551507949606, 0.36897978638531953, 0.3842587328536313, 0.392540459737032, 0.40118296904274525, 0.3890564996746411, 0.38354042565832003, 0.39636391229137785, 0.37358790119683577, 0.38590663064193226, 0.4207246612020603, 0.4148203618449249, 0.45926420549575164, 0.48866928338582666, 0.500219345963073]",False,0.8000,0.4000,0.5000,0.1000,0.2000,0.0100,2.0000
33,go,Hit,1,0.7700,"[0.0, 0.008660391042064172, 0.018227101803878605, 0.042850639815151234, 0.059586922610911405, 0.06969174453518992, 0.10853806179389157, 0.10525153120480571, 0.13401158312817107, 0.11986962454042686, 0.10968812431618194, 0.09421306658702741, 0.10805862985622697, 0.094229774186891, 0.08458001809575724, 0.10208780494475025, 0.11393517887677462, 0.09619073112219333, 0.13040297804468554, 0.15149409709674266, 0.16330751767809715, 0.20671692294855668, 0.25105096297029766, 0.2866020011072514, 0.2726301322536959, 0.300387345183812, 0.2742944293229316, 0.2538386983771677, 0.23662066474927845, 0.22475906774103319, 0.23823407804665064, 0.26948978017645475, 0.29095029824047436, 0.2748115607379973, 0.31296450227333183, 0.30233764159678367, 0.2841707674142549, 0.27217227403130945, 0.2873481481605072, 0.29410722464435207, 0.30790937524462797, 0.30282789004930605, 0.2900861124479793, 0.2958264190100274, 0.29146680322557167, 0.32149787756489623, 0.3155572623909918, 0.3032856337618514, 0.3151892987705589, 0.3200528508089419, 0.3297460188856832, 0.3509411764659578, 0.3401729103380737, 0.3295801116263454, 0.3520282693726936, 0.3312732890458528, 0.3340069134577664, 0.36218117885615675, 0.36329348791098576, 0.3479671286128069, 0.3669485743996817, 0.3950900502385991, 0.4304098552019316, 0.4381044346366984, 0.44632316476517764, 0.4808985421633334, 0.47831278640641434, 0.5089880030441879]",False,0.8000,0.4000,0.5000,0.1000,0.2000,0.0100,2.0000
34,go,Hit,1,0.4900,"[0.0, 0.03353644470255453, 0.05447618050480656, 0.030602616716572786, 0.06978800313942748, 0.09594466212018576, 0.1347069103339437, 0.15867671836164984, 0.16467127665182846, 0.17188153655621438, 0.1841946029944126, 0.18559723886840612, 0.1800240433286525, 0.2123588410919913, 0.20939939196954763, 0.21747194202794698, 0.264086666421661, 0.2540619195195195, 0.2410163758290911, 0.2683665164157325, 0.28934520826306687, 0.3013313954193466, 0.3309518458339712, 0.33779897549020876, 0.3583566283487624, 0.3541549370245828, 0.38347209780351604, 0.3864088309299605, 0.3980826742971712, 0.4147115501194255, 0.40325826315278235, 0.4348715812365083, 0.4344851569505711, 0.4177063725647658, 0.44221558669812155, 0.4443327785476101, 0.45773707130545904, 0.4621272862888666, 0.4866153244217394, 0.5183171556142745]",False,0.8000,0.4000,0.5000,0.1000,0.2000,0.0100,2.0000
35,go,Hit,1,0.7300,"[0.0, -0.006969884659930059, 0.01948338153880888, 0.042231531110180735, 0.05382465202723754, 0.052021992172640634, 0.09357237098892504, 0.09419621245328798, 0.11931675792653315, 0.1146371974523078, 0.11093146481343451, 0.10307375243957842, 0.10756367414992939, 0.08897186737690697, 0.13108982874533925, 0.13630067522350822, 0.13438524906278762, 0.1251874928954483, 0.15859638269757675, 0.14800247497750457, 0.1284358320135171, 0.15761594796252984, 0.18883359793617, 0.1875728275279483, 0.19679025384432094, 0.19398629836398118, 0.18745652106463043, 0.19493876555160733, 0.15911148467877556, 0.15164920331011472, 0.19388175985349212, 0.17290332627937938, 0.18601141909604177, 0.23091554646695214, 0.2265598265436788, 0.246661215520686, 0.2418668988797274, 0.268344565363006, 0.2795805053177475, 0.2893129691950096, 0.2710299993096624, 0.29830596744152665, 0.31301892241834883, 0.32369927259290787, 0.34958075743002176, 0.34382079653299713, 0.3963086622974338, 0.39704604944196986, 0.3946852135504489, 0.44791868468288415, 0.4451300096259788, 0.45243760624582396, 0.49390055058936266, 0.4650122422179422, 0.47036265573662145, 0.4845022638407661, 0.4722760235582367, 0.4569480690022981, 0.4574827064452031, 0.44639624002637324, 0.46129090478395907, 0.47854701427931695, 0.4922052342975816, 0.5354790886837948]",False,0.8000,0.4000,0.5000,0.1000,0.2000,0.0100,2.0000
36,go,Hit,1,0.6100,"[0.0, -0.016905580484313853, 0.0005216324612986913, 0.024238436667948463, 0.024768751452409123, 0.03822417144870982, 0.051630526492651214, 0.08430445944889953, 0.06409888421433226, 0.07203237652578047, 0.07875630792999337, 0.09655178534695531, 0.09347526149177231, 0.09456221203023252, 0.09787512174176353, 0.10679233260095876, 0.10058651102412935, 0.11673834477523318, 0.10117687308369724, 0.0819349332287307, 0.0871615059949091, 0.14336669770652874, 0.1647788094784367, 0.19949856251216616, 0.1964017669702622, 0.20785481355922872, 0.23239236424893944, 0.24327599336729644, 0.256984274731103, 0.236196764491294, 0.26930642939834004, 0.29260230619439553, 0.29858577870341163, 0.27970104653439753, 0.27644559428931575, 0.28454013257323557, 0.2715943967503674, 0.25176063597196274, 0.25638065960148837, 0.26524142324716665, 0.28261476327524304, 0.29426337208662673, 0.3246645052746533, 0.34423314693487095, 0.3689372103412999, 0.4048942031061693, 0.422418002838381, 0.4483540331986991, 0.46440348107082985, 0.4795421917668206, 0.463295794048634, 0.5033763384073838]",False,0.8000,0.4000,0.5000,0.1000,0.2000,0.0100,2.0000
37,go,Hit,1,0.5900,"[0.0, 0.030864760233109828, 0.029665623535367575, 0.03970905959587989, 0.04154198368630082, 0.0635303302423844, 0.07440639927308355, 0.09155479635490113, 0.07080125124311834, 0.06274356877749414, 0.09266592656486153, 0.09135618126525037, 0.13274087262118017, 0.11960780800579023, 0.13712792725305947, 0.16699941269814458, 0.16956152771654917, 0.18425261271982812, 0.17633325083440404, 0.19120366947547568, 0.17928905911137968, 0.17902939851756625, 0.17311127628266998, 0.17400549904360668, 0.22129780918310824, 0.25875816906375454, 0.258491263155705, 0.27159806948821474, 0.3192919812837488, 0.34651186666678024, 0.3506254356027479, 0.3101038298041347, 0.3026866366902296, 0.3164633923331628, 0.3386807390506387, 0.36153522168327473, 0.3779814567997193, 0.3799288964586038, 0.3710717370405029, 0.36932973519948414, 0.383260438998531, 0.39517541306611204, 0.40453417081395365, 0.40013401086000633, 0.4083920453637533, 0.42531572237665577, 0.4719451010128192, 0.48539465430404344, 0.4963356553152218, 0.5312103388659132]",False,0.8000,0.4000,0.5000,0.1000,0.2000,0.0100,2.0000
38,go,Hit,1,0.6800,"[0.0, -0.008071826905836736, -0.014174289122783255, 0.019037546488138678, 0.037246321290914236, 0.049018449533263446, 0.044179586872628594, 0.00822404078216879, -0.0036495761406358414, 0.02201954576749251, 0.003670521729779549, 0.029328296693755352, 0.06457505462641747, 0.08766631669367582, 0.10935368225145967, 0.09662755027097038, 0.10583343093444418, 0.11153694004994316, 0.12409813255727042, 0.11757513148446014, 0.15641333502321556, 0.19314175778411452, 0.21613618443847382, 0.22184103432949467, 0.2592301262985035, 0.22871406326292362, 0.23820764380823542, 0.23733529479599524, 0.24936950875008984, 0.2659940500007025, 0.282497239896677, 0.3054273027853799, 0.29745053207525357, 0.27441526010551404, 0.2781496289732172, 0.2613725728371349, 0.25534899307963765, 0.2574343107023113, 0.2748198609388255, 0.2960485452562053, 0.2706992998550103, 0.2677392130989537, 0.308988970557154, 0.3228914485222463, 0.3299540286759753, 0.32717001137434676, 0.33541703516007015, 0.33890137080536276, 0.33761146517120416, 0.34776038632078027, 0.3767716157401703, 0.4212199686400284, 0.41387966271495796, 0.44761340768113733, 0.46562511950928803, 0.4749515776463623, 0.45698145034770465, 0.4940796706813152, 0.5273590220413803]",False,0.8000,0.4000,0.5000,0.1000,0.2000,0.0100,2.0000
39,go,Hit,1,0.7400,"[0.0, 0.0026547858343442896, 0.024682709171714237, 0.04202939168240957, 0.06027201218949743, 0.08241067208183404, 0.08753470362776282, 0.10021378828054865, 0.09761999122721222, 0.08022695474466526, 0.07401189133046876, 0.05845742099609533, 0.062904313052253, 0.08858009264786458, 0.0742431162105958, 0.09568246185018517, 0.09240184151835594, 0.09185266833327979, 0.11448735591699528, 0.12390309996398424, 0.12799322565325752, 0.10337537022510307, 0.1530679593093457, 0.1782661355164465, 0.18607480625621592, 0.17644713876598847, 0.19148422553883587, 0.20783019478913725, 0.2741232986980733, 0.29535305471981865, 0.29605979372815056, 0.27789102690074957, 0.3236399033520183, 0.32144554373177975, 0.3095485495874258, 0.33459623012116624, 0.3605488821552984, 0.34469894040888843, 0.3201574477573452, 0.33533425834415803, 0.3341375798066678, 0.3435504182538108, 0.3733222478257945, 0.34873973487662924, 0.3951312366558102, 0.39894835569719206, 0.3684404523263394, 0.3886541735466926, 0.39360919159660995, 0.4057197734127776, 0.4473752901545083, 0.4217730222889146, 0.4462163081700399, 0.4607807894599435, 0.4571104164953196, 0.4613622326074928, 0.4595389712662633, 0.4382695764363932, 0.4328154584040673, 0.4788156629923182, 0.4701084284543696, 0.45045444272867863, 0.4447556517241759, 0.4826959901409201, 0.5273344611911245]",False,0.8000,0.4000,0.5000,0.1000,0.2000,0.0100,2.0000
40,go,Hit,1,0.7100,"[0.0, 0.024537697290042567, 0.06066886635120551, 0.0483449696515805, 0.04229474969433829, 0.06998343690034486, 0.07912980097331548, 0.08509820005382791, 0.11261336057440671, 0.1490605223671193, 0.15867917019090805, 0.14745392727800463, 0.17136563509672723, 0.16085185120277554, 0.17171951327308346, 0.19373335538336844, 0.20013568902205994, 0.2147563177437129, 0.256422774097498, 0.23680870349552785, 0.2520031627780095, 0.25894464452881283, 0.2507645700043483, 0.25518072006872866, 0.23232696654081067, 0.25029599396798197, 0.26946743814832946, 0.2492496753483068, 0.2830761233912308, 0.28483786286401336, 0.3074239149983416, 0.30676277040927985, 0.3390279563033468, 0.34249692300886747, 0.35104853585815177, 0.36315282496891543, 0.39009657088831423, 0.39606079952601797, 0.3960580308301472, 0.4398889044372655, 0.4383186570617388, 0.42731022944609987, 0.41577330751822517, 0.4215408137018766, 0.4162132876252095, 0.46862904009765105, 0.4859130498942009, 0.4504192065416201, 0.46376326692088626, 0.4362335448265413, 0.47082215525889326, 0.48912936708503635, 0.4987100727057992, 0.48902474651381145, 0.4702534997551695, 0.46211783146598046, 0.43255422812616673, 0.44487377081561924, 0.4733000667293721, 0.48855329038218864, 0.48656369709660774, 0.5339073888387729]",False,0.8000,0.4000,0.5000,0.1000,0.2000,0.0100,2.0000
41,nogo,Correct Rejection,0,2.0000,"[0.0, -0.011952129592959765, 0.009402539666543119, 0.02420662368646584, 0.018470690005436843, -0.0030441782599514924, -0.018804671109785412, -0.026439046643538, -0.03559028045611333, -0.024796550554838127, -0.020766178385289512, -0.01262309364430939, 0.0010808469393588649, -0.006748971470022177, -0.004955850952348717, -0.00658509651910193, 0.020419932414304773, 0.004914587593948992, -0.016638815586854403, -0.028943983660514226, -0.042196164529564706, -0.026155410145014525, -0.036618441445841574, -0.038914018429521136, -0.0736840373360336, -0.05620452839263192, -0.07237998195078443, -0.06275353777823367, -0.09015027589920158, -0.10626174630705454, -0.13212747594766175, -0.1188694919400648, -0.10875686552622818, -0.10835556359624994, -0.08455856419163005, -0.09300114646710064, -0.09900102677235564, -0.10222368273910767, -0.10943508289339907, -0.09820267483295164, -0.09121989171915977, -0.08309752819525817, -0.08113837593260634, -0.05606413950906911, -0.07919536238677852, -0.09998225880909056, -0.14496705873354476, -0.14722575305488847, -0.16111307892718754, -0.18640797783648505, -0.1455440093218966, -0.1208061836581032, -0.15008605833753524, -0.13911969236101018, -0.12631997928153316, -0.09856317894479279, -0.09999446990828306, -0.11194212237312234, -0.10732643245750054, -0.13796443843633996, -0.13450228155013272, -0.14629289482079583, -0.1537691399743432, -0.16102491806973837, -0.18736967192668666, -0.20297301002784504, -0.20936642357983187, -0.2064035006380034, -0.22394255558286152, -0.22865900002841236, -0.23017339182291882, -0.25352338005711317, -0.25069808813260197, -0.2697670643873966, -0.2949084306043235, -0.3045280588781228, -0.32163354994875015, -0.33706813330992574, -0.3643534777393805, -0.3473714960603582, -0.3485110707182602, -0.3525388689928459, -0.32513337285904736, -0.3282077896786195, -0.28764841433758087, -0.2792963275246691, -0.292006864668714, -0.2825798878403254, -0.2998744495073634, -0.3031489510095026, -0.3490982824318757, -0.33736702798190804, -0.3357791020853792, -0.3139733673165339, -0.32462091252012587, -0.3023047200217211, -0.3283847946870456, -0.32495168143363523, -0.32604890816465315, -0.3282189271979663, -0.30582335400523397, -0.26792863370083453, -0.30346725806609637, -0.2876362751076611, -0.31635254820074243, -0.28722267010308655, -0.32484139913527643, -0.30692221459962454, -0.2906849968392276, -0.3032605795721274, -0.3236472728769353, -0.3298931365947441, -0.37559527332247583, -0.385307193950633, -0.3682553911462422, -0.37755330847246354, -0.368796365356424, -0.3772596188575143, -0.3810780977330243, -0.39537378347116814, -0.38187162228611105, -0.38911714046837526, -0.39534473387917096, -0.3793962803625234, -0.37801607323289527, -0.3902377648970636, -0.38543924389215317, -0.4100162812628418, -0.39504611591139566, -0.406455029439493, -0.3861264940311988, -0.34305066746677215, -0.34591659978956457, -0.35159784937215, -0.3452121953883912, -0.3367720316970118, -0.3676340030862586, -0.3631947276407771, -0.373043958112561, -0.39651961322090556, -0.4046971188597341, -0.4049075258234644, -0.43100400102481334, -0.4030655742799873, -0.39605179239225546, -0.36483977851338084, -0.3686886669759509, -0.3920616795162411, -0.3835914873891342, -0.3695748753072457, -0.395844680741589, -0.4046267728812404, -0.39539955096222507, -0.42947145995244523, -0.44444278777507784, -0.4634272660731743, -0.4649117125035572, -0.44663741201229595, -0.4660266765381432, -0.46784354911227954, -0.4524308432836919, -0.4630777592737147, -0.42168708795734094, -0.4540898290161882, -0.41968155243940897, -0.4386974675471701, -0.43684184528980496, -0.42707598134800706, -0.42872074251062703, -0.43287438723100496, -0.4328798310016881, -0.40935379736054645, -0.3825876785326149, -0.37852650477876354, -0.38417907523986156, -0.3965528329092983, -0.4070099390266622, -0.4178922840043814, -0.40346544458446115, -0.44150321108397933, -0.44243024869565684, -0.4226329984196953, -0.43554946698654057, -0.4383540075057001, -0.42622423207591187, -0.44017460043193657, -0.4069696716357755, -0.435972711843066, -0.4545409404280669, -0.4527619418540415, -0.4527185972891921]",True,0.8000,0.4000,0.5000,0.1000,0.2000,0.0100,2.0000
42,go,Hit,1,0.7900,"[0.0, -0.0009408795774756319, 0.010227807087379638, 0.0029735359173929075, 0.008877500839883333, 0.010718731862808788, 0.009532690107268805, 0.005661694809660807, 0.008308706934200615, 0.04577347394282001, 0.05539658328636955, 0.06896593874160552, 0.06257479770698882, 0.05810279275839844, 0.05645081656991055, 0.054683311518437264, 0.07035395002640746, 0.09283244470696751, 0.12099090114891813, 0.14233420607397973, 0.14815439286403845, 0.17421274181902588, 0.18226613099056074, 0.16060766162486695, 0.18015468184728792, 0.1863410301647598, 0.19221060510678137, 0.20453303673160722, 0.25436686325108526, 0.3074227194556846, 0.3348182380699219, 0.3614873856951056, 0.35937194269067824, 0.38276511747713493, 0.3743377917662701, 0.36730075145167806, 0.3819791486318663, 0.38511089107101515, 0.3726171901719459, 0.3722804123017634, 0.39347886597773085, 0.3808048828858275, 0.3843437793862933, 0.3827085912583143, 0.38342330692417975, 0.41495506855899544, 0.4165982331618984, 0.4169366802226585, 0.4404967926138501, 0.4481345450256407, 0.4327707751023566, 0.4472293450443307, 0.4339994403813133, 0.39584314612811916, 0.3867247778162813, 0.36997855400743485, 0.3786574393625415, 0.3483020292869603, 0.32149223355882967, 0.33195006863769755, 0.33278680233830604, 0.2980488595591204, 0.35350542525530176, 0.3680598941302691, 0.3638496452444908, 0.37878182961462775, 0.4239465491900214, 0.46671792565305975, 0.4666213490568151, 0.5098686715701899]",False,0.8000,0.4000,0.5000,0.1000,0.2000,0.0100,2.0000
43,nogo,Correct Rejection,0,2.0000,"[0.0, -0.016132611951138815, 0.013506661679293788, 0.00490826163405301, 0.034958271433537955, 0.041629512254041795, 0.022080554200153226, 0.003971616483831184, -0.01047993202501485, -0.007362190394725472, -0.038746414812755196, -0.013386377666575695, -0.00028151405257781197, -0.012008318429381338, -0.0465740682788173, -0.0032132432475446976, -0.005271463351130216, -0.011273024079597023, -0.020304055915798258, -0.01005338098350594, 0.012181289850380552, 0.017329644220650947, 0.025572341269098436, 0.0013466374644155385, 0.033227471693546236, 0.05013811231933993, 0.048333077003503894, 0.05256124915594672, 0.06565810111896259, 0.09233862229400959, 0.11469829200931286, 0.11480653924796941, 0.1367869538298431, 0.0999107284813174, 0.07757872883306438, 0.08820892864364786, 0.09251481541039029, 0.08106900988240323, 0.07152527291544962, 0.06867571339365518, 0.044097136061677006, 0.057151773722857305, 0.01439282127164377, 0.012565587588213436, 0.02239854988279942, 0.01546356993672438, 0.01979743049012829, -0.003976608121151564, -0.033289338195905335, -0.05524753428403001, -0.046306859657472305, -0.059997110425557394, -0.07658327826134118, -0.09848398258681795, -0.1239950536350452, -0.12919488771992346, -0.14009548031099156, -0.16731684350104056, -0.15510699860792976, -0.12349466830109096, -0.11815923656248645, -0.1215880774355911, -0.12913757648479912, -0.1659750321203377, -0.16057954955791368, -0.15713265591568526, -0.12882940552311073, -0.1518972968205849, -0.17075026762733347, -0.14675493319873772, -0.14585075878502696, -0.15563905477264864, -0.15209697990260249, -0.17043193260759273, -0.19366558540182693, -0.22620428881684634, -0.23425728125061465, -0.275309889098604, -0.26855947922635903, -0.2702523307658362, -0.27640399909082247, -0.27340003100916827, -0.26535357007921545, -0.2800202133099765, -0.28975054737866934, -0.2732910530013157, -0.2980436983928096, -0.3067486116463377, -0.3194608198431671, -0.31208533076693223, -0.3153857086068394, -0.3308386006517851, -0.29596719564747304, -0.32239934982371976, -0.31482972151765515, -0.27851553239922333, -0.32531569993264586, -0.33876420936424634, -0.3449019762505124, -0.364424623098001, -0.39298739560826723, -0.39707113755938245, -0.43802261409000076, -0.4322545338346978, -0.43169077914750553, -0.4168827699194229, -0.4266687793535627, -0.4380358403936397, -0.4514086016925457, -0.47845884758347285, -0.49205232331330934, -0.4921483094414754, -0.5038758292590284, -0.49813272233095374, -0.4850012735192322, -0.5502318307785243, -0.5486211014336074, -0.5686731999249564, -0.5791184191290555, -0.5951997355796093, -0.6212057798916237, -0.6377987128963465, -0.6418488967070616, -0.6727278834177721, -0.6555747844608311, -0.6680043402581011, -0.707977813362762, -0.713486466056136, -0.6863815727126371, -0.686451093085505, -0.7066902902537233, -0.7172181221077741, -0.6963360877646125, -0.6709433122588756, -0.7146257411230724, -0.6893926759817387, -0.6850019565256305, -0.7037830115737238, -0.6969387280685653, -0.7116215442495152, -0.7226874265636052, -0.7205658699155003, -0.6747991091976329, -0.6675302230089439, -0.6825857748421424, -0.6826969402348293, -0.6598552104792236, -0.6740519441326445, -0.7087753290418496, -0.7327458318234253, -0.6998102398231293, -0.7111011661635596, -0.7048269004757453, -0.6942507430988426, -0.7103427648519062, -0.705406756935833, -0.7233123191309959, -0.7534214493676983, -0.7318626664045276, -0.7587288613032056, -0.7757469202001006, -0.7463758360500934, -0.7260454392362756, -0.7055929726717938, -0.7009810727845155, -0.6841419586283926, -0.6986526420601327, -0.6999754076958563, -0.6973568939049023, -0.6876372334198079, -0.6724929787690315, -0.6882851041859974, -0.6593603468830963, -0.6668902723299438, -0.6895550734867656, -0.7178095331946227, -0.6989498688461492, -0.6791525751627457, -0.6944918650748166, -0.7267027432389522, -0.759410516850348, -0.7917396230378454, -0.8018720625992336, -0.8182901837284755, -0.8128377038631699, -0.8174099787270919, -0.8008902826380352, -0.7912422068886616, -0.8184871870885826, -0.8186618134884451, -0.8001518261927927]",True,0.8000,0.4000,0.5000,0.1000,0.2000,0.0100,2.0000
44,go,Hit,1,0.6100,"[0.0, -0.004804112348945332, -0.00902142461021906, -0.004487017253408118, -0.009823888349558153, 0.004474149687106001, -0.006937319283191159, -0.00537469353526607, -0.015140634273836565, -0.013591139074217256, 0.03039747546431856, 0.08374222471163827, 0.08134576412855717, 0.08938485993290665, 0.09968272289439035, 0.10813488878189925, 0.09212198187310838, 0.0865241248816008, 0.09649183976793053, 0.08670272990938895, 0.09991241036707796, 0.10936484309090619, 0.098786510843058, 0.09852574053930817, 0.10479798045559624, 0.1255255153347501, 0.12749742955880863, 0.12069393602605517, 0.12222137560338782, 0.11665987461709515, 0.15045535029034768, 0.15462726711926514, 0.16815816810781353, 0.19435605972558131, 0.22909557263801855, 0.29156870497028164, 0.3255131116593589, 0.31141936185500146, 0.34339902344680173, 0.36623370410726097, 0.382855942041612, 0.4162766150543195, 0.44580397208616457, 0.4284793191794342, 0.4550457668353179, 0.42646845434599173, 0.41503315380128947, 0.41894561987670675, 0.44050468035452484, 0.43767728014762974, 0.46346298329087754, 0.5090474352981094]",False,0.8000,0.4000,0.5000,0.1000,0.2000,0.0100,2.0000
45,nogo,Correct Rejection,0,2.0000,"[0.0, -0.011560998899330367, -0.0036576148748780537, 0.0015484979182960896, -0.012348818820457836, -0.02974947117317061, -0.00031141422836996474, 0.005847516774479734, -0.015554221776525087, 0.008456007107748402, 0.047015550812704095, 0.0668000785934575, 0.05595043715384527, 0.02418986932504128, 0.04872559466976498, 0.045869031800829754, 0.03848886743597278, 0.0321533609513126, 0.05187808131940547, 0.06366222330188104, 0.03690439909821045, 0.01820287272978655, 0.029921773769541526, 0.052544163513711314, 0.03053782120030665, 0.014697510291792382, 0.003551883137112093, -0.0066857187287765185, -0.055476185757584985, -0.060247066268113464, -0.030553137006918474, -0.01764707565388727, 0.012996664534628811, 0.013269203200941828, -0.00785108510393052, -0.005705581467495733, -0.0042020977646663685, -0.03517554943660933, 0.0031859411109242605, 0.00133711397501004, 0.0017591693407457952, 0.002555244279680513, -0.022278503520573416, -0.016846250887031587, 0.016179484333647957, 0.007877559448298108, 0.047153289688798984, 0.05849624908692138, 0.05034440642407481, 0.06589080967868097, 0.07907928500656863, 0.05694865567404293, 0.04544315657138115, 0.07124436708894319, 0.08019525136921551, 0.07009766356636979, 0.04186278039902547, 0.03799733453332048, 0.0387708719960253, 0.06536893369068943, 0.047997141075446684, 0.07274757913821503, 0.09066749101060184, 0.08996312311389387, 0.05349191361613516, 0.051127989660847875, 0.07380461308240566, 0.06675267018872243, 0.05746857087937428, 0.020054430475760318, 0.048003678785890055, 0.02371015266286877, -0.01231982937379528, -0.010733233559801306, -0.006941937293510291, -0.05184586732981132, -0.022962574126783798, -0.03650376659851465, -0.043081565330516935, -0.03921312108517609, -0.002055868823706883, -0.022877253010612726, -0.02703468138280097, -0.0042133073459457784, -0.012877843549592307, -0.004649097743792312, -0.034814250696889835, -0.028668230676769844, -0.04017901936680528, -0.076525194787332, -0.07306108989202234, -0.06174200677746825, -0.0703188955498781, -0.049400741061210396, -0.011538347665438667, -0.02861226413582554, 0.030063934789395726, 0.03772574098021358, 0.033585812325640535, 0.02583702756026677, 0.006683456634653518, 0.0075525761596570325, 0.01588108792727931, 0.0031608095759769854, 0.01618985015691727, -0.006360898443424832, -0.010915412205665487, -0.024214096796420073, -0.010497135191820819, -0.02037075387274714, 0.017415724849554632, 0.04162801532869937, 0.05790443175588532, 0.04203862292395581, 0.04657596757252165, 0.02743462758318226, -0.004575374383788387, -0.021640462027443245, -0.03918261539494079, -0.008725040540551746, 0.0067263290229733885, -0.01132759792631399, -0.018117780618830372, -0.0195489641848141, -0.017520893500135453, -0.033057813114664256, -0.001604481383587146, 0.004300965441413788, 0.022947873406174754, 0.02805561233558226, 0.0026521016869202607, 7.495043878860208e-05, -0.02542536252588877, -0.018661129157369755, -0.027310829524267256, -0.018060472031222352, -0.035722235956399645, -0.028942431977799093, -0.018068230174524736, -0.02391357823224991, 0.028081765356088223, 0.02649543854788352, 0.06689827186494818, 0.04573591165248257, 0.034059249294198894, 0.005406215802664351, 0.011433358678650777, 0.019690583964572524, 0.01902802732840139, 0.04717594787997656, 0.01688698434683362, 0.021302561763020717, 0.0028987141609554228, -0.005878490480367957, 0.018335080094410067, -0.020846515226431224, -0.025313569982170117, -0.04370197572655651, -0.04768435112647473, -0.06954810915313774, -0.07312304424931873, -0.12397114445243507, -0.1622063133507056, -0.1487134983347776, -0.17171296415685763, -0.12179947781120923, -0.10708181864548706, -0.10923371265053879, -0.10854024413722259, -0.12852289505268819, -0.1787109124484276, -0.19569499851984556, -0.21504504113852438, -0.25452175370621605, -0.23637318494001833, -0.22399813310234107, -0.20144096481701348, -0.1621987135311047, -0.1694969279439638, -0.16230489377564933, -0.16644692334331623, -0.14944759692490106, -0.15469227723837556, -0.15126368026501472, -0.18831677390603874, -0.1965670230876601, -0.21783626592077, -0.24493902425246847, -0.2650430715202228, -0.29712668822486854, -0.31233882297990073]",True,0.8000,0.4000,0.5000,0.1000,0.2000,0.0100,2.0000
46,nogo,Correct Rejection,0,2.0000,"[0.0, -0.010476059147816021, -0.02622158578247421, -0.05587300338023631, -0.048693953607622534, -0.052383835028416884, -0.06631817897993672, -0.0729548791641955, -0.07763129529944632, -0.09186882390818389, -0.0848667841257769, -0.08842885089700057, -0.08731138075797276, -0.06795516990343833, -0.05601629841448243, -0.06303537194434422, -0.05967682787957944, -0.07122691332145743, -0.06865004332507689, -0.06974940054476611, -0.08337931158481834, -0.1108104263888322, -0.09780885043703282, -0.10874114951976513, -0.08305118037717202, -0.07974415628759877, -0.0871689121850563, -0.08357806250523316, -0.0876786497943232, -0.10786893867619529, -0.12689157972872478, -0.12448337708583009, -0.14738042619563238, -0.1449580114742863, -0.1375641555724597, -0.12452936772324445, -0.14534098241615076, -0.19604569220877727, -0.2476792318145615, -0.2540815118083262, -0.23753587406512838, -0.22961666206114262, -0.22653572178772308, -0.2146160180624292, -0.2296639059441224, -0.20722732198393315, -0.19430033617315465, -0.17104828702316557, -0.16806057379970923, -0.1928436204296106, -0.19697074148594318, -0.16681557369439276, -0.17064712168658283, -0.1923650501425138, -0.20792570044089723, -0.21091970398773818, -0.19106804432526972, -0.19388682302761706, -0.22593541796577435, -0.23807714090075324, -0.23046394459661096, -0.21799181223691522, -0.24475176667797321, -0.24104589848367985, -0.23056711490009862, -0.24180271478514667, -0.24995443302095233, -0.2609570010810467, -0.27123065255234385, -0.2506944150733157, -0.227146751564238, -0.22490010573813488, -0.2519878793659507, -0.28283289394572864, -0.2841359602398896, -0.33440992031984, -0.33668322748192897, -0.3494912864057364, -0.34312262978611496, -0.3440964534351912, -0.28996841569601195, -0.2554818186527944, -0.2453599854490109, -0.22384554649718236, -0.2203407296647912, -0.2292892009622722, -0.2478444577502857, -0.26009709145125176, -0.3010038121275432, -0.316142743802956, -0.339759967300058, -0.31739194870628396, -0.3244137080868648, -0.320710486523184, -0.31634376407390435, -0.31833796031277317, -0.32167384334199395, -0.30936675024857907, -0.30932937975122005, -0.3140259180979095, -0.2956887355199118, -0.32829205781883514, -0.3034322258734939, -0.2831210542387035, -0.25839765372897766, -0.258655061708318, -0.24964965665632277, -0.24610289553269182, -0.24935817824446962, -0.2393450753712441, -0.2378802278788892, -0.25578609318548634, -0.28961280839228926, -0.264320865422587, -0.2598757929490016, -0.26790735682977174, -0.2652390026585705, -0.28724054968309753, -0.2821713639421951, -0.2827175849689432, -0.3168896007334613, -0.3233970357268734, -0.335023642628625, -0.33089741563252023, -0.3369973797414728, -0.3130825091012893, -0.32155508911474534, -0.32949258577307305, -0.3383878282228108, -0.3451964230406257, -0.3462174880788583, -0.31250793284256617, -0.3278389819281911, -0.3415428578804085, -0.34522883144404887, -0.33377466271284845, -0.33917409325879927, -0.3233394861513479, -0.3322662019492866, -0.33608757068766587, -0.3642781999873123, -0.3876826224893954, -0.3974982442743248, -0.4036529604490476, -0.4116114191975615, -0.406713271101305, -0.42541205188215886, -0.42130130531975774, -0.4322332332029995, -0.44123244540947987, -0.43839484441054316, -0.4314139650259223, -0.4421074830068264, -0.4472246420650907, -0.46527244182559974, -0.47240974645213407, -0.48924280701653516, -0.474699775462218, -0.44570986143919705, -0.48559370646928246, -0.5017969256697575, -0.4927708285899675, -0.4333147219667913, -0.428929229699256, -0.4821489136765908, -0.48556553027634275, -0.4785975448051311, -0.4603436409590994, -0.4593094918585526, -0.46155035519966897, -0.4588296412191935, -0.4414787081201821, -0.44850960064124423, -0.4418595203440499, -0.4590317034950079, -0.47834487842508927, -0.4900453409678154, -0.5155167243329978, -0.5085281966350393, -0.5192273471467813, -0.5272734333650332, -0.5327730913214849, -0.5237295238083145, -0.5341301559418097, -0.5341766178438998, -0.5400854889536874, -0.5407036618202251, -0.48115671239784286, -0.49070480681969375, -0.4842480911507303, -0.4882829279314746]",True,0.8000,0.4000,0.5000,0.1000,0.2000,0.0100,2.0000
47,go,Hit,1,0.7300,"[0.0, 0.021122273315627136, 0.008692445936957196, 0.03122163003476611, 0.06324667594852507, 0.05447825402946853, 0.06819299792661734, 0.050799001369683995, 0.05379064144824725, 0.06949325763622567, 0.0955925951095915, 0.1059096335073367, 0.08096182921473605, 0.08513585867327086, 0.0936819653146866, 0.09048806917451749, 0.12727244187704867, 0.17688503232518182, 0.1687553209566074, 0.1655147633603582, 0.1633768014315957, 0.17666773208136638, 0.13972440447749948, 0.12329711134243693, 0.12965559911498273, 0.12817300839265688, 0.11640767602249515, 0.13872300577089652, 0.1276772846439017, 0.15263773754562693, 0.15728018312492986, 0.14019127536153006, 0.17187648749326123, 0.21932967559953184, 0.2313389012986727, 0.20215924563122786, 0.21402195511029465, 0.19845690211906253, 0.21514625783110522, 0.24006431102345802, 0.22571787692271067, 0.19690521728405053, 0.2227397062156766, 0.22180364892772883, 0.23092775491714182, 0.2487240882982969, 0.2535379643074124, 0.254753276601937, 0.286699327481852, 0.3068756906356685, 0.32421510847079843, 0.3474330568958463, 0.34464475381319865, 0.3503394045090296, 0.3834579261902908, 0.36819010943758707, 0.3907915320681584, 0.40970466580092063, 0.41529990579355713, 0.42935143764315425, 0.44425177997371745, 0.42884645105153396, 0.4491857395002629, 0.5033063722503093]",False,0.8000,0.4000,0.5000,0.1000,0.2000,0.0100,2.0000
48,go,Hit,1,0.4700,"[0.0, 0.005117475324736549, 0.009594203985978163, 0.028988560352812547, 0.04069385547486734, 0.06532220913834028, 0.07348726254474906, 0.08728455717464091, 0.10097604006031213, 0.12775600073644203, 0.1343976868385648, 0.15593404302251684, 0.16963169782167384, 0.19879545681987706, 0.20510206078394994, 0.2585182059808909, 0.2747763851834304, 0.2789367433211945, 0.25025675378034307, 0.27968538590435815, 0.2696691636850392, 0.29908420649687023, 0.2820119918653017, 0.27825164443056605, 0.303470660824558, 0.3287542497935546, 0.32090424300143894, 0.33314096981789515, 0.3226832711004613, 0.36163124097609617, 0.35253738801107304, 0.36595360884688716, 0.40588596894366724, 0.43588182093256334, 0.4469263137100313, 0.4721605604255056, 0.4805965090934098, 0.5195010581550138]",False,0.8000,0.4000,0.5000,0.1000,0.2000,0.0100,2.0000
49,go,Hit,1,0.9700,"[0.0, -0.031232414676458244, 0.002003733327864042, 0.031019025463528936, -0.0005652937353809867, 0.00029032135352007656, -0.029822043068353857, -0.020543623067400846, -0.01808736066028091, -0.029458488108841427, -0.028404857775507296, -0.019886101431992077, -0.004606496627070033, 0.004825527264536878, -0.00953218950332366, 0.002742393050348131, 0.0028537236068115444, -0.004453789023924296, 0.004140954018697534, 0.013798589276386922, 0.06468828140740583, 0.10630813978971976, 0.1416591411094092, 0.16475430902719265, 0.2001606337265491, 0.20325427329295065, 0.23886138774932392, 0.24151874746409613, 0.2697896964004621, 0.272711146815479, 0.2562018711360462, 0.23731882823588932, 0.27999730085583857, 0.27706207251988557, 0.30021031051644154, 0.3129538280641716, 0.3376338450255519, 0.33435695418307076, 0.3478482876472588, 0.3952665403633881, 0.41533637389786165, 0.4121994039229693, 0.40112305147766514, 0.4164571598751598, 0.4288062715626333, 0.41439358305681934, 0.39805818219465183, 0.38253144290537827, 0.42365701237816494, 0.4313585118597372, 0.4461824432019429, 0.44662570753167924, 0.43820115117216707, 0.4716034662257998, 0.4369673938962203, 0.43146811235700966, 0.45691517015676253, 0.4257467601716069, 0.41868477480873617, 0.3941894013214006, 0.40756410976677265, 0.40406177185764747, 0.42502162237547036, 0.45328067808669903, 0.47035675226741647, 0.4703759852784952, 0.44424870591849347, 0.42953290355698176, 0.42299073963702966, 0.4541013092485373, 0.460824795116377, 0.42264878447815085, 0.44733970014375135, 0.43678318065815996, 0.4528661579455516, 0.4315409244526318, 0.421413522826138, 0.4141862283343277, 0.4160082924350445, 0.3877270971888075, 0.3859002902203478, 0.3864801014480846, 0.39813826919619755, 0.4415572506581622, 0.46597025379605106, 0.4688603244759874, 0.4816766231452718, 0.511725431981305]",False,0.8000,0.4000,0.5000,0.1000,0.2000,0.0100,2.0000
50,go,Hit,1,0.6700,"[0.0, -0.0034924813483472143, -0.018954732849898046, -0.016923426504316885, -0.05205161268188973, -0.051848247515668466, -0.031996593177812505, 0.008060941319223608, 0.02571001989028964, 0.03221694086338686, 0.06454107673330316, 0.08402860227836549, 0.1264673604661082, 0.11638984888993668, 0.11530414380218426, 0.12417890962757724, 0.1312699145157144, 0.13261953065117954, 0.15950822893470618, 0.16920216624792814, 0.18408826377698528, 0.19048298633231137, 0.20381716843154699, 0.1604862029475065, 0.15445656283262404, 0.1943073449918742, 0.1901387119289386, 0.1939689795592875, 0.20269006513943313, 0.2097832410569291, 0.2469055111030185, 0.27109564738853237, 0.29346575391543345, 0.3377995262674689, 0.30470220949559207, 0.31001474418496844, 0.3244721204370573, 0.3246506872613906, 0.3316211947387159, 0.3444560483189498, 0.3100749647753376, 0.32144278951143823, 0.3027361840906839, 0.3329129958944092, 0.3751076289651366, 0.41885048762032095, 0.40184593951320075, 0.42472829040592075, 0.44619714066235605, 0.439135415483701, 0.46880550960899636, 0.48586364181987785, 0.47344492384550085, 0.48173928747640826, 0.47139291263665994, 0.4852920774112188, 0.4868217373067689, 0.5189615919553582]",False,0.8000,0.4000,0.5000,0.1000,0.2000,0.0100,2.0000
51,go,Hit,1,0.7200,"[0.0, -0.03495707803031093, -0.02874191205258002, -0.05508050482747577, -0.04114008066271096, -0.0437461808036007, -0.05274885990570201, -0.05464338977466979, -0.050772586741076535, -0.017992443503079637, -0.01682462805985284, 0.024903801526918186, -0.011281053334370149, 0.0005508430763727454, -0.015887305212355804, 0.042972634362055576, 0.03125519088978711, 0.026031000229067666, 0.023955854532903408, 0.0035929742572547198, 0.017098777500397774, 0.019019896812060223, -0.005350142048332614, -0.03789937483097153, -0.004641291487776915, 0.02942291871815223, 0.06751627547562666, 0.06385868799580965, 0.10327594130727309, 0.13590287194451006, 0.12809407486784088, 0.1387429512052228, 0.14643249514819007, 0.16451410635893576, 0.19423570484578032, 0.23876296095320504, 0.2557990629167627, 0.2515576053466593, 0.26816885457755113, 0.3034087817095285, 0.2676061244085136, 0.2505515893644751, 0.2653209871009173, 0.28754398223100064, 0.2745243922888897, 0.3003955337876224, 0.2977735928246476, 0.2910076605734837, 0.25786257304180793, 0.21490926285392442, 0.2351531430241523, 0.2267243280956747, 0.2703152508302237, 0.2914464070565763, 0.3265027398208109, 0.3631902639635599, 0.36797283366702344, 0.41840220693806046, 0.3965769645928712, 0.4361805604067505, 0.4619482086366229, 0.4931271724288966, 0.5218144595897782]",False,0.8000,0.4000,0.5000,0.1000,0.2000,0.0100,2.0000
52,go,Hit,1,0.4600,"[0.0, 0.07458810882077563, 0.10537342023508967, 0.08928511814662952, 0.11467582719103278, 0.12127411900593092, 0.11888440967046102, 0.15251542884196068, 0.19324742305829462, 0.20179727864611208, 0.20504521629071806, 0.17460557884044597, 0.19005247933646052, 0.18744354596691834, 0.2018156508692927, 0.2129327322988348, 0.19363866954888623, 0.20770732146382734, 0.21849845289410974, 0.24479774536513585, 0.27124944877359597, 0.2794056988402859, 0.315747954528631, 0.30000145697136227, 0.34013004883512266, 0.36602095077812363, 0.3875010594865285, 0.38937155186850203, 0.40399961285751584, 0.4130890018062837, 0.4535034901455016, 0.45409579291509494, 0.46355314065216185, 0.45839545682437877, 0.46270570857153354, 0.46651462240343217, 0.5087579537253963]",False,0.8000,0.4000,0.5000,0.1000,0.2000,0.0100,2.0000
53,go,Hit,1,0.5200,"[0.0, 0.03740920741726056, 0.1087242873072985, 0.12192681942352317, 0.12059345365044451, 0.13431373778728325, 0.1360512821493944, 0.13881377237932882, 0.15059182854210076, 0.12736775823418683, 0.1298065475990025, 0.13334637810674954, 0.11556621336389858, 0.09643333069678003, 0.10139214522970215, 0.11214092884001409, 0.10469041917668423, 0.1203379102212083, 0.13047165769910207, 0.13760930913897526, 0.1653989467545868, 0.18809108563299498, 0.21979148490186168, 0.20944803058894934, 0.2204109041114768, 0.2292494255201583, 0.2798489667330195, 0.2668582964810348, 0.2803179345151302, 0.3019735528229506, 0.30271050913338104, 0.3319224458809441, 0.33881525277687635, 0.39349996500550094, 0.4026547638216293, 0.41176150286432617, 0.41167736230574364, 0.42830945281701166, 0.44096047926080595, 0.44397693738058347, 0.47138756521382036, 0.4838560131294706, 0.5098277290088794]",False,0.8000,0.4000,0.5000,0.1000,0.2000,0.0100,2.0000
54,go,Hit,1,0.5600,"[0.0, 0.007878718861431584, 0.019289384106359254, 0.03914639737646252, 0.0685029081065218, 0.04747312909924435, 0.05612888084738363, 0.05043404643795217, 0.06553595739845319, 0.08094577704904837, 0.07906010409362377, 0.0860279342027002, 0.09347130428115809, 0.09109868141839728, 0.10433035426989701, 0.10792395816366461, 0.1359220351886702, 0.12256000520473401, 0.13999418332980307, 0.1545056165635629, 0.1598495429696545, 0.16553238126377287, 0.1904417466630374, 0.2167376950987408, 0.2646111970932665, 0.33366062957844045, 0.326591938948923, 0.31971314628553654, 0.29218995735085074, 0.33797320355373833, 0.3310805361876808, 0.3522637153081522, 0.3392628222007072, 0.3698347539650933, 0.39010013282510764, 0.40886733065775754, 0.4215053549474689, 0.4273259715605898, 0.437711522696232, 0.4230541156070933, 0.442475589453202, 0.3962232708426638, 0.4108362592037376, 0.41909550600348366, 0.4371580306678581, 0.488020507799368, 0.5038307504810258]",False,0.8000,0.4000,0.5000,0.1000,0.2000,0.0100,2.0000
55,go,Hit,1,0.3900,"[0.0, 0.037964386203190904, 0.03919762306290523, 0.029374075078597905, 0.04095163924338213, 0.06798553806670393, 0.0735198932479372, 0.058763155639632636, 0.09491771797358674, 0.09108810236347695, 0.07798667793852682, 0.08720109095844798, 0.08515486140822576, 0.08804689645512753, 0.13470402108345952, 0.15323652029766938, 0.1890065736676726, 0.2389712144762542, 0.21576870835276474, 0.23335768409059476, 0.2642203940196094, 0.28261790579698604, 0.2704487124721835, 0.3294126548907702, 0.3645915327775289, 0.40159044086509227, 0.4470718367420328, 0.4552741496145102, 0.48057216528643126, 0.5299194103985378]",False,0.8000,0.4000,0.5000,0.1000,0.2000,0.0100,2.0000
56,go,Hit,1,0.7300,"[0.0, -0.004188979975102059, -0.030835087331761303, -0.02506441698623195, -0.03974370186913573, -0.02959920945061688, 0.02577500924017618, 0.02635293855041226, 0.06675500937961068, 0.07398442248184244, 0.08074436836521284, 0.10993975355959532, 0.152253219272808, 0.13552158288647675, 0.18714735553353207, 0.20043160680387948, 0.19068414442744802, 0.18769363536797826, 0.15987971347210697, 0.18419444972800478, 0.2202768325516467, 0.24974825169046294, 0.231559219563323, 0.25437363541664726, 0.26341279498938674, 0.26592091161727244, 0.27107565406192813, 0.29172445314444634, 0.307445430066285, 0.3038309031180713, 0.3010071297018344, 0.27085154524044486, 0.30761128031534124, 0.3071422021135238, 0.34333015702453307, 0.35516435597140944, 0.34542491196289615, 0.3688423626314611, 0.37498582084283805, 0.34358799660765305, 0.3793959925795932, 0.40808295401016537, 0.37122999210397356, 0.40203995907114226, 0.4489866220299302, 0.4323645801036692, 0.3815397613939321, 0.4084337985460453, 0.40448299708490626, 0.4139880172877404, 0.40676070386244595, 0.38809554299068394, 0.3946167678885346, 0.4029227727549024, 0.43460400243580694, 0.4428969201251241, 0.4552872359625291, 0.4657790834922639, 0.4874345305423222, 0.46732135984232076, 0.4797201639881945, 0.4802491257727319, 0.4783404814093243, 0.5120509090386027]",False,0.8000,0.4000,0.5000,0.1000,0.2000,0.0100,2.0000
57,go,Hit,1,0.5700,"[0.0, 0.044852583114653684, 0.08294017440296717, 0.07636679897238163, 0.10993874583207211, 0.13625191872259187, 0.15096159238766527, 0.18526231290368478, 0.17642446617940694, 0.17672596288080447, 0.16676732895550195, 0.15870876934311767, 0.15563900557530014, 0.2096463330017409, 0.2254299474689789, 0.2082902725295292, 0.21826483656782997, 0.18717991542021895, 0.17743361438408362, 0.20833675186748485, 0.2608875166544342, 0.2852185894294879, 0.30686607702410384, 0.31301050171838546, 0.32549178456073474, 0.3345288711467986, 0.3497452718098286, 0.3508787955871901, 0.36471156712710295, 0.3619239640215113, 0.35244249188558535, 0.3210336247892229, 0.3171615843916633, 0.30961044129903365, 0.3666526598372103, 0.3749395745947364, 0.3851223475381475, 0.3880252529184324, 0.42447487761459474, 0.43568547220580234, 0.4553662832965697, 0.4367309356844417, 0.4361799608493591, 0.44660799385259037, 0.458301325541381, 0.4856314638011899, 0.4964671254217095, 0.5250249167551908]",False,0.8000,0.4000,0.5000,0.1000,0.2000,0.0100,2.0000
