trial,stimulus,outcome,choice,rt,trace,timeout,w_s,w_n,threshold_a,t,noise_std_dev,dt,max_time,affect_stress
0,go,Hit,1,0.2200,"[0.0, -0.0025914518365468004, -0.007684001399405694, -0.02294366730916303, -0.0063764107270453604, 0.03323874146216684, 0.07076555230995675, 0.04890656060900722, 0.05462478092293161, 0.05592518738304909, 0.04509479134448851, 0.059919808622033895, 0.10057855426845888]",False,0.8000,0.1000,0.4000,0.1000,0.2000,0.0100,2.0000,True
1,go,Hit,1,0.3600,"[0.0, 0.022564463356059716, 0.014301611945049426, 0.004120892149986441, 0.011712111192040357, 0.01138104082696285, -0.0023640495114142044, -0.003198899239457993, -0.010437716129728405, -0.014128443229241788, -0.039776228076472235, -0.05763461689339318, -0.03404535180791378, -0.022155103764338664, -0.00408364002755187, 0.005322832562577864, 0.021531530510616494, 0.03936641318903272, 0.04678468414298761, 0.038333078577002376, 0.04899211881460293, 0.04032917033881851, 0.07008227007258888, 0.07432298600639213, 0.08279712617450534, 0.09908507347454269, 0.13085500137536377]",False,0.8000,0.1000,0.4000,0.1000,0.2000,0.0100,2.0000,True
2,nogo,False Alarm,1,1.7700,"[0.0, -0.008760438906771613, -0.0055269699126679565, 0.010754844151159385, 0.04654316535560038, 0.04780781672206452, 0.06243626650697684, 0.05685122311994896, 0.021696622744595176, 0.007515733700148601, 0.0035228339550451753, 0.0064025444384437314, 0.0012722082975735686, 0.00663129109946728, 0.005110899634078744, 0.01379582552638875, 0.015888502423790873, -0.0170875331439435, 0.0005785166803866683, -0.03293564761482008, -0.03659214216546357, -0.06122301355511406, -0.07928836543701992, -0.09194483243315822, -0.11510344997699817, -0.12457776800297346, -0.10459085966887151, -0.1269428634594473, -0.13014079372583032, -0.1443820520411321, -0.1755874300724738, -0.1514891098017228, -0.13164150686235276, -0.15592531850138364, -0.16083643644906825, -0.15759102205501957, -0.1495524178555308, -0.14342459952527054, -0.13219791765456232, -0.1276940206666552, -0.14443300584986776, -0.1587445088277055, -0.13668649375435737, -0.1481484834425538, -0.15075773052637684, -0.16589318782062842, -0.18801804698722246, -0.22466701409212383, -0.22289060140835917, -0.23519309005097813, -0.1838868513996618, -0.18603370151028176, -0.18992427792342642, -0.18674577387726024, -0.16130391990136317, -0.19695436416648315, -0.2219792142766177, -0.22688459324625562, -0.1881594410518622, -0.15818318743181337, -0.15572513929003934, -0.12462811993841856, -0.10345279258075094, -0.0843646156822245, -0.07998276547143907, -0.07663727832116309, -0.059653966590245765, -0.055425619700078366, -0.016854302811650755, -0.0205360504774081, -0.005809352233174209, -0.012677680958369558, 0.005669003124813939, -0.007692497333774672, -0.02920898327290071, -0.0627931315830398, -0.05751419246322336, -0.04042663748812807, -0.045619265546067295, -0.02546374070284296, -0.03829311982828902, -0.05033809804025827, -0.06260979755794677, -0.08477925597385222, -0.06621593085215625, -0.08502684272074051, -0.0835831683781569, -0.049639015676861936, -0.05815855406980704, -0.05863640351300656, -0.014182248670843972, -0.01696452812318294, -0.02814953023637659, -0.04278170373784787, -0.039888210323534026, -0.03150728667933583, -0.04201503828668384, -0.06293478216683045, -0.0831539239219752, -0.09067236765717133, -0.08308314793317322, -0.08664153618089643, -0.07650196494847451, -0.03279849792749266, -0.04456263942769314, -0.04871025479405794, -0.0372718954589032, -0.030529261015341994, -0.03208695467888136, 0.00708692589313633, 0.012538926958568444, -0.03524531167763933, -0.058010511782423335, -0.08524078263568424, -0.06310861498822225, -0.07664622310886206, -0.04140265353505218, -0.03909460609811787, -0.048008207831702086, -0.02551558692976294, -0.040731748587272285, -0.03368572453165047, -0.027539398976305727, -0.09090598204831228, -0.114417639361981, -0.12542972801976168, -0.13502251120512498, -0.12682381566601916, -0.12790337140108357, -0.12388782548474302, -0.1085189001281494, -0.13068438125684387, -0.10494532078562978, -0.09212446392188528, -0.07964185035317457, -0.046449731910432494, -0.08040838585108097, -0.07987974847314283, -0.10227074758438683, -0.08488310015053549, -0.060167210803090086, -0.07626588782662909, -0.04286539593484139, -0.03520652451333336, -0.017735618823125684, 0.016114471941575465, 0.01005506386159512, 0.03650904212020175, 0.03592937888268174, 0.054791391422973776, 0.057915730431860886, 0.05291414222528229, 0.06983902937080055, 0.039422939882171146, 0.0321561436009304, 0.039671394776084536, 0.062422500962445865, 0.037532454005176394, 0.05551889037590282, 0.07417257055325263, 0.06489341737260314, 0.07543126489279217, 0.07083342886122623, 0.05173670910899967, 0.06222930876963402, 0.0773912105572947, 0.08553684046027368, 0.10340198852701327]",False,0.8000,0.1000,0.4000,0.1000,0.2000,0.0100,2.0000,True
3,go,Hit,1,0.2300,"[0.0, -0.013729843731194256, -0.02468454603572724, -0.01174307020377105, -0.015360904447765058, 0.012252856888760476, 0.013823239186259316, 0.015773909989789926, 0.04007104146846378, 0.0667519007581916, 0.07390617942195629, 0.047292401572378566, 0.09176879083550946, 0.11100075712877511]",False,0.8000,0.1000,0.4000,0.1000,0.2000,0.0100,2.0000,True
4,go,Hit,1,0.2500,"[0.0, 0.011592359296818283, 0.048432120813092554, 0.07186684670824199, 0.07274769919261463, 0.07756671588730309, 0.04559698283300878, -0.0027782697800917133, -0.000362820763676836, -0.017403738721450363, -0.0025961992395597943, 0.028044769091292894, 0.018345758731552215, 0.0610865556738793, 0.08281552653794322, 0.1116267381866379]",False,0.8000,0.1000,0.4000,0.1000,0.2000,0.0100,2.0000,True
5,nogo,False Alarm,1,0.5700,"[0.0, 0.006945240335260872, -0.0065667315625111316, 0.00934539931038239, 0.007047037572459476, -0.023818090717312883, -0.03181623035069168, -0.034962565960156684, -0.04644038065153408, -0.07894913072147935, -0.06827362319036885, -0.06596530693413476, -0.07770203325092088, -0.06831563056484705, -0.0540915547403585, -0.06496925501131501, -0.05902221303685608, -0.06512986860727882, -0.06908095121411653, -0.06491269309192874, -0.0892656828268665, -0.06429822905050317, -0.05000515364350594, -0.06714280317809057, -0.03102144079494689, -0.03267540129276926, 0.015843372309884307, 0.0018079912723239933, 0.026257412103197125, 0.025655966887857574, 0.033966574282324545, 0.03850630191401097, 0.06408519309650877, 0.05797222858236995, 0.05505607666875401, 0.035464341443022476, 0.007182842552619761, -0.0025505204952703687, 0.01512059321819608, 0.017884207877034732, 0.020270803309748585, 0.038650663967475324, 0.006000328276901959, 0.028120748991452862, 0.07948536878153184, 0.09605793777515105, 0.09807348367827531, 0.11547326928802129]",False,0.8000,0.1000,0.4000,0.1000,0.2000,0.0100,2.0000,True
6,go,Hit,1,0.2100,"[0.0, 0.0008787346925082026, 0.033334859293649405, 0.02766931036024601, 0.03681111876355914, 0.06235755899906344, 0.05639722427635271, 0.06755649506772768, 0.06382588388550763, 0.06796923929174932, 0.08653766811249834, 0.12007108104770099]",False,0.8000,0.1000,0.4000,0.1000,0.2000,0.0100,2.0000,True
7,nogo,False Alarm,1,0.2200,"[0.0, -0.0019829972852615308, 0.01107649506329558, 0.0039032189398940454, 0.02723927951873226, 0.031393088616689456, 0.017098837523016306, 0.03399114876055513, 0.05260741758904504, 0.06346037929681703, 0.07670122993411313, 0.05952069941728609, 0.12888586141792213]",False,0.8000,0.1000,0.4000,0.1000,0.2000,0.0100,2.0000,True
8,go,Hit,1,0.4800,"[0.0, 0.0006188383658034544, 0.005103768852196739, -0.012363709028144213, -0.019185053527284963, -0.002147661100834069, -0.02363786079711094, -0.02493133486006974, -0.04109075095439419, -0.02722129013436829, -0.023470835541124203, -0.027096581584230492, -0.021849886565587322, -0.004909167192284871, 0.048307702973220235, 0.06862578186780599, 0.07715427274805675, 0.058125323934640934, 0.05297253851327825, 0.015513883051796712, -0.00021185839155702518, -0.017100115581893584, -0.015930735550627125, -0.028821761150782686, -0.015658588530714744, -0.0023813026096145603, 0.019503503683046673, 0.011429498994796259, 0.016877564689703726, 0.006367140215421691, 0.03661459890127302, 0.0686344137674469, 0.08850602410604785, 0.09541633561257756, 0.09440496171121601, 0.09300547638709362, 0.08691917139469699, 0.07967765252136752, 0.10996481786429402]",False,0.8000,0.1000,0.4000,0.1000,0.2000,0.0100,2.0000,True
9,go,Hit,1,0.1500,"[0.0, 0.031850878404689975, 0.0379028065418276, 0.06587112905449932, 0.09590348247684137, 0.1033289399847983]",False,0.8000,0.1000,0.4000,0.1000,0.2000,0.0100,2.0000,True
10,go,Hit,1,0.2100,"[0.0, -0.010802088915170607, -0.034663251897606724, -0.03675485455626483, -0.024817763047526517, -0.02453648213017387, -0.00833958700518073, 0.02828475579679519, 0.05410883458991568, 0.09353783418937223, 0.08984748115636466, 0.11484705550608545]",False,0.8000,0.1000,0.4000,0.1000,0.2000,0.0100,2.0000,True
11,nogo,Correct Rejection,0,2.0000,"[0.0, -0.02369849037875703, -0.018917157014576715, -0.022272411013828947, -0.014156261388331448, -0.003973612012784716, -0.020394898060352037, -0.032349353338148035, -0.01713436699284185, 0.0024504830880759144, -0.004602126486977814, -0.040233971814427755, -0.029671003329911558, -0.012541511314158281, -0.01915539793779719, -0.048242875993466064, -0.08269859659803219, -0.09555587556401983, -0.10811092339379866, -0.10599219317934738, -0.14595052848332596, -0.178504238504402, -0.2129137155749088, -0.24610897697949147, -0.21910793044194016, -0.18887144324572594, -0.18337936015073816, -0.15420985909545976, -0.1720383323571966, -0.178851548333235, -0.19568352868453587, -0.17613618985227786, -0.13847828375190765, -0.1240842802175063, -0.17420702347064604, -0.184919628787325, -0.17992659420168533, -0.21261232359055926, -0.19146760908879543, -0.21387702424255228, -0.23328970192459295, -0.26306856346011087, -0.2721529858460688, -0.28367241698406465, -0.2895407832395778, -0.29365111025755647, -0.2853469208480298, -0.26788079340350485, -0.2913178687586948, -0.2943618043686705, -0.30814907048559836, -0.30006446512857143, -0.31106987932150876, -0.3463453771774726, -0.36161688622986793, -0.39470758687339114, -0.3891651724624351, -0.3919331006419061, -0.4235970213271407, -0.443005229491031, -0.4311203243716496, -0.42431533103092384, -0.4470695101955039, -0.4021270843672047, -0.37804812995662707, -0.3880646703054089, -0.407519931775212, -0.4272347625101228, -0.3973147840533282, -0.37542485625740374, -0.401056977462269, -0.40495955856256, -0.4068950101991335, -0.3888418982965096, -0.3858953143148181, -0.40337501123731023, -0.4121097177264337, -0.43587512062254175, -0.4373978909289277, -0.44445337771723914, -0.42740140998287823, -0.4321149810423672, -0.38047588770343926, -0.3709563674711491, -0.3698478702764891, -0.3672533898226947, -0.37888019204133877, -0.38021223440889723, -0.38434838378082675, -0.39683254893110914, -0.3749067914499336, -0.3670105205118497, -0.34904650436108575, -0.3307017221519653, -0.2950777916909389, -0.29171618354515366, -0.31320920713556405, -0.3040765045471839, -0.32199922047440777, -0.3043265525004864, -0.29437986552656337, -0.29925431459984914, -0.29843484872985926, -0.2958559818866423, -0.30412250020455645, -0.32112873101815465, -0.30498357929419684, -0.26252526264954584, -0.2526715205458076, -0.22747332523410602, -0.21508885255211413, -0.23998682872521024, -0.22361192828935184, -0.2157446413565301, -0.22939500938252794, -0.2319884093630621, -0.2353624207321473, -0.26260351657601455, -0.24106041394447053, -0.21461837222173133, -0.2032676353878076, -0.19803483780420914, -0.19329940814078692, -0.16266508134584123, -0.1507385069728277, -0.1386667785392205, -0.13315755948701707, -0.09252383336265942, -0.08970590517918259, -0.10068026474474459, -0.13030173210914298, -0.1432445357643013, -0.11887852071516716, -0.0939494169297288, -0.10938151381866643, -0.11169736376369543, -0.07091388515313891, -0.05827161644106802, -0.10243272701868367, -0.08985208851378869, -0.11687255541202933, -0.12088169266581254, -0.10069528757566379, -0.1300968358876097, -0.14206926822918323, -0.1327914565773097, -0.1572651904647434, -0.122109521973782, -0.1238996340667933, -0.15191142145814668, -0.17701120056699762, -0.18306754368438333, -0.20703292361969788, -0.16320594369203617, -0.16127558295203465, -0.14687812693151897, -0.17915613105098596, -0.14870930218522094, -0.1881367664811744, -0.17201363144154627, -0.2045802218511031, -0.197106002771358, -0.20307777320970224, -0.20908388641034145, -0.19899633236616984, -0.20415032360167173, -0.22519569324772853, -0.23820283423521404, -0.2540149414367833, -0.23832115101897386, -0.222603415518278, -0.23378641957429808, -0.22228406582263188, -0.24119625271689377, -0.2477851692487435, -0.25030919999572465, -0.22890909070584595, -0.22649415121885205, -0.19281294419171224, -0.18743068798738505, -0.19649869189532418, -0.2089562125474823, -0.20228379710378547, -0.18895902215280239, -0.1783011197839772, -0.19038823681729855, -0.1665835280291441, -0.14350741049706323, -0.14248699517452781, -0.13034551680015544, -0.15153458104666206]",True,0.8000,0.1000,0.4000,0.1000,0.2000,0.0100,2.0000,True
12,nogo,False Alarm,1,1.0700,"[0.0, 0.0019783556600219735, -0.0001553001138071648, 0.002063801535408187, 0.01891939043426776, 0.006669849390132565, -0.0011061863993261966, -0.008808489038526619, -0.013552360873393055, 0.020613477040924037, 0.0172582182240822, 0.030640482862100225, 0.012173728081959032, -0.005483879804133864, -0.024874824670970682, -0.013343526840631847, -0.008956033527741967, -0.028781835658509745, -0.054588480215537846, -0.0519876736802265, -0.034388492156539704, -0.04616014247231926, -0.050850269278123264, -0.014089722122260354, 0.015690403712369447, 0.007454634518849066, -0.007727589970702572, -0.033292396744406864, -0.0457967327141795, -0.04877187217453785, -0.04242479336085251, -0.05419517819866333, -0.08701935179389564, -0.0931986507814126, -0.07679487943571701, -0.0724100762969795, -0.11359629731550373, -0.1216617719361878, -0.0767798496322745, -0.08275273044319031, -0.024313621786488354, -0.017249049187431673, -0.005360255321285713, 0.005397097228600914, -0.022492239642670227, -0.023867730133444866, -0.0374659194169269, -0.051997226168028286, -0.050518942291326016, -0.07183179598110986, -0.04534995031150493, -0.031799094179831615, -0.05056538696847504, -0.02484564068336849, 0.004810691998726548, 0.07631364216060185, 0.06305884478984294, 0.04962662669355686, 0.034942530541624106, 0.011355662723494857, 0.015299292370933568, 0.019562570541361894, 0.0008089915166371378, 0.00815025002982257, 0.009481218449600303, -0.008202566946649689, 0.024121995982106473, 0.02568268290842087, 0.02267808769861672, 0.03253274473027526, 0.026218935551955806, 0.03210241110955588, 0.059465674292449214, 0.07722215038934932, 0.07094608304001833, 0.08746106407556921, 0.07943675831219792, 0.07818961215406223, 0.0809081470537677, 0.07538424672257964, 0.06831235530163536, 0.07121598823062854, 0.09268158328405175, 0.06870414533461533, 0.011141512955211375, 0.012965003864003998, 0.012999560613024147, 0.025532351998180748, 0.029916826707345738, 0.02661242063555011, 0.013892159951730213, -0.000674082662013015, 0.07030597718866358, 0.08478347278094468, 0.08328106189762605, 0.09086930583621831, 0.09708159908204435, 0.1283638795741249]",False,0.8000,0.1000,0.4000,0.1000,0.2000,0.0100,2.0000,True
13,go,Hit,1,0.2100,"[0.0, 0.016209137306386307, 0.038749472945170865, 0.02984879191345656, 0.011156189658972106, 0.02106043503227243, 0.035858207055919813, 0.037146211394543625, 0.06530109511248623, 0.08225901145966238, 0.08244164776882401, 0.1064479083198252]",False,0.8000,0.1000,0.4000,0.1000,0.2000,0.0100,2.0000,True
14,go,Hit,1,0.2500,"[0.0, -0.010707900235392764, 0.00465006590565822, 0.016354539956543027, 0.03736403633891214, 0.0384738607451305, 0.03199311961425157, 0.05760450433854942, 0.06266272621239578, 0.07247468560946908, 0.06287232055965052, 0.050303629940694095, 0.07060872891109567, 0.07599332637890113, 0.07937191053054209, 0.10056464819647115]",False,0.8000,0.1000,0.4000,0.1000,0.2000,0.0100,2.0000,True
15,go,Hit,1,0.2900,"[0.0, 0.029595062591699143, 0.04911078408752487, 0.05688617304915897, 0.043670698740439856, 0.031906184842503266, 0.05575447228858636, 0.030070795843402207, 0.015503498785279422, 0.0328546013643988, 0.024593131401748698, 0.018554319860994498, 0.04419456251891116, 0.0488141324056104, 0.05922646159631394, 0.08215469985355323, 0.08489610845449101, 0.08649361204691919, 0.07775595973302929, 0.1073537995026697]",False,0.8000,0.1000,0.4000,0.1000,0.2000,0.0100,2.0000,True
16,go,Hit,1,0.1800,"[0.0, -0.008274956380277698, 0.018978903898517394, 0.030433011545071068, 0.038582987600483086, 0.03402965309361478, 0.046589725096305344, 0.0513303185051847, 0.10690155672171522]",False,0.8000,0.1000,0.4000,0.1000,0.2000,0.0100,2.0000,True
17,go,Hit,1,0.2500,"[0.0, 0.014802544175906582, 0.04419061258369657, 0.030804041570452512, 0.0013120706695466493, -0.020970908558130427, -0.02281707600772285, -0.003968327634798659, -0.017034913733706445, 0.005274719717662316, 0.039152863798953344, 0.06414868971489932, 0.04979095063259247, 0.049682004460065446, 0.06339564736836285, 0.10258837343623092]",False,0.8000,0.1000,0.4000,0.1000,0.2000,0.0100,2.0000,True
18,go,Hit,1,0.3200,"[0.0, -0.01466077707026274, -0.033262472632943865, -0.032562229913457995, -0.02436551338548331, -0.02771201028453847, -0.03292166940281467, -0.010083677053518154, -0.016959316361978505, -0.03194785076938928, -0.03370430847369639, -0.03675396134677926, -0.012466450744766176, -0.02896236139821791, -0.004769067129417728, 0.0297742439988576, 0.031002394916085065, 0.03442898507224654, 0.04646443893696817, 0.04542894356595007, 0.07332195023386336, 0.09309469923138686, 0.10569359414195871]",False,0.8000,0.1000,0.4000,0.1000,0.2000,0.0100,2.0000,True
19,go,Hit,1,0.2800,"[0.0, -0.006524696197732513, 0.0013167445318220325, -0.011280972271083406, 0.004352447698662356, -0.002993746060809547, 0.019286909429633254, -0.02899544005950112, -0.02292995411966461, -0.0366914232077217, -0.051413066044622424, -0.02967383515338965, -0.028888124695496526, -0.005298155845740286, -0.021963881308606426, 0.02383395649619659, 0.05324747291516895, 0.06569576484101955, 0.14318017955060586]",False,0.8000,0.1000,0.4000,0.1000,0.2000,0.0100,2.0000,True
20,go,Hit,1,0.2200,"[0.0, 0.026229492043069808, -0.008647131924512556, 0.017839212349896983, 0.031184915442893618, 0.04775779962293841, 0.05599020123569582, 0.020015546326428248, 0.04258617636314686, 0.06589863354436236, 0.07336034244188717, 0.0981359057606214, 0.10992560503090006]",False,0.8000,0.1000,0.4000,0.1000,0.2000,0.0100,2.0000,True
21,go,Hit,1,0.2300,"[0.0, -0.010283065743759354, -0.032599466887491754, -0.024942618511341233, -0.03445405572096917, -0.022492587743080165, -0.013083057940391269, -0.013036928850510715, -0.01299209655569697, 0.03986758728887256, 0.03232468337864677, 0.0745840294977706, 0.08958200270504438, 0.12304053190358029]",False,0.8000,0.1000,0.4000,0.1000,0.2000,0.0100,2.0000,True
22,go,Hit,1,0.1600,"[0.0, 0.028260970220542726, 0.026812199265972315, 0.04997277258743622, 0.055520702113763795, 0.09082156186008811, 0.10726763666549011]",False,0.8000,0.1000,0.4000,0.1000,0.2000,0.0100,2.0000,True
23,go,Hit,1,0.2600,"[0.0, 0.02380568087016364, 0.026610198416295916, 0.014297164755226487, -0.0011767256309050296, -0.03172099980104025, -0.030348749330432925, 0.01893982560475431, 0.0611412011054199, 0.05086323991529976, 0.0374046449453075, 0.04799950233194256, 0.028068533742033896, 0.049609189503648926, 0.04583425107387489, 0.0544296183679257, 0.10742148867805659]",False,0.8000,0.1000,0.4000,0.1000,0.2000,0.0100,2.0000,True
24,go,Hit,1,0.3700,"[0.0, -0.05973366362966869, -0.07849177092510685, -0.08294959363705397, -0.056361715561984285, -0.080714268735807, -0.06523265764582822, -0.04977881705959916, -0.03925634660544513, -0.025655503368886348, -0.03446030327207631, 0.007766265782700135, 0.0181540012465398, 0.019903970290075006, 0.02453943028432999, 0.031512753594932434, 0.05593086040606607, 0.05274645158108767, 0.044224763629340275, 0.04668837694901909, 0.08682166426854829, 0.08053500773541698, 0.052548365729939144, 0.07444953667626475, 0.06412703798068865, 0.079537565600162, 0.0998786083855734, 0.1282541631416708]",False,0.8000,0.1000,0.4000,0.1000,0.2000,0.0100,2.0000,True
25,nogo,Correct Rejection,0,2.0000,"[0.0, 0.01828586147847364, 0.016862808895308966, -0.0067783725779326336, 0.006642049075786787, -0.002253924676562614, -0.003455502400627209, -0.020747927322831382, -0.03343724646996552, -0.0478221935098328, -0.03310270917744175, -0.03710916550480564, -0.019757710763495147, -0.019653385880616717, -0.03276992425892624, -0.014707232043004718, 0.0057735178996626835, -0.011955661306380184, -0.04614533634644644, -0.040029197610170514, -0.03411984282162728, -0.055417169006499636, -0.07838943350475788, -0.12356863148162392, -0.17533333002009305, -0.17113171120372667, -0.19215209624285867, -0.196382425658633, -0.18611389067288928, -0.1625567781313766, -0.18970524645812997, -0.1947258612848932, -0.18289039559189876, -0.21761790574776038, -0.2461830498087965, -0.23459173465995223, -0.2595883868165753, -0.22976176225160422, -0.22098632310035743, -0.211440835598141, -0.17274723735470363, -0.1862214147078072, -0.16123183911283115, -0.18988979593959812, -0.17670493580421925, -0.16648756112061128, -0.15728621716453092, -0.14471819669141284, -0.16221089583507403, -0.1898574978301768, -0.2090107566641983, -0.190763203891488, -0.17535915571444075, -0.13672482704917063, -0.07850910305270017, -0.056335099177165976, -0.03879326352426983, -0.07748470767460024, -0.03630206123194742, -0.029724325971951182, -0.029272658821271128, -0.0560849375952155, -0.042336421245861115, -0.03286470006431686, -0.05105612283010612, -0.04665860821130701, -0.04973779694727187, -0.04807907428993617, -0.044684954295885565, -0.014735657654871198, -0.04855397094000316, -0.04351999597428712, -0.020502980858774382, -0.06020184648471553, -0.036326295304638906, -0.03639609376782256, -0.049941552450586145, -0.0407666807376486, -0.04842110211287484, -0.035381375183387506, -0.02895854321870931, -0.030693060649749603, -0.04735905594146014, -0.051750309751334496, -0.04980226300761418, -0.05309070886564886, -0.05348821617902181, -0.033507193731594026, -0.06779306643084144, -0.05722649782297501, -0.04610492710630981, -0.020079671758639128, -0.061134489987180185, -0.03190687167557717, -0.051926754015924545, 0.013809792286364003, -0.010099816286520125, -0.008343481959047718, 0.00117378207142603, 0.02698058110285542, 0.02747365567307286, 0.013951226738814377, 0.008612089167504753, 0.0020095976025557996, 0.014153860571558576, 0.037961492786483864, 0.06239170920833487, 0.03361150619204752, -0.005050986373432806, -0.02652674176176716, -0.032568652921164086, -0.05273782713997906, -0.08636743499389182, -0.09026904174108362, -0.08945736246386506, -0.0528827993146886, -0.043335040073992394, -0.022450079643725144, 0.0012662742994536333, 0.0018026097949537033, -0.017875890340091447, -0.036781577716160835, -0.05112447819751552, -0.08564858547989469, -0.11211408442687154, -0.09138726259098402, -0.10452969061067913, -0.07760632305001887, -0.10585580041746237, -0.12276195189844098, -0.1149520730931688, -0.08292331105435558, -0.09898292005820834, -0.11484405704703513, -0.10943967518555403, -0.12596896950075048, -0.12765861558194888, -0.14570519206548713, -0.1603841161777042, -0.14686754453343231, -0.16927948894553482, -0.16898731106317358, -0.1506503433893096, -0.13860051469657575, -0.0989453614062078, -0.11061040969212117, -0.1003445826947212, -0.11354678891191204, -0.07594211968258037, -0.08042193424530021, -0.07482023191111553, -0.06702166668390776, -0.06358366415296977, -0.09651411485457961, -0.09912525684807637, -0.12028688127276536, -0.12842377466917726, -0.12178167715618665, -0.0845961246850336, -0.12218017749783323, -0.12468378267305989, -0.12353570764779592, -0.12010247272383817, -0.09731361267609064, -0.1168000895234886, -0.07534190763353632, -0.07373706398270832, -0.08723490704479049, -0.06222405510982225, -0.05698071977870228, -0.05240211074061329, -0.04838363977979747, -0.05778189532965688, -0.043083736898945076, -0.05890404562385124, -0.07478385538490342, -0.07518205896863213, -0.10523205547245924, -0.11408649027891939, -0.12683271413524502, -0.13497753166812446, -0.15357352618073916, -0.1462329279242581, -0.16186417989075386, -0.15313955188560763, -0.13342450011180917, -0.10071250864825246, -0.07679108997779029, -0.05302894055098836, -0.04306763102917075, -0.039611982019962494]",True,0.8000,0.1000,0.4000,0.1000,0.2000,0.0100,2.0000,True
26,go,Hit,1,0.3500,"[0.0, 0.0010816605471104272, -0.011570304062066241, 0.001212159551795565, 0.03263425371534081, 0.03577745784425111, -0.007365386413315619, -0.001066422944349118, -0.012800996949358032, -0.03794610109732371, -0.03617628163585143, 0.0009828381857862334, 0.014751607620537052, 0.03071337723994781, 0.024414111570822655, 0.03385281192715123, 0.03305301567263044, 0.0400331664979571, 0.05265922835621724, 0.04664138434130459, 0.07383547522895997, 0.08611511826409042, 0.07180027769741573, 0.06588139911167758, 0.09225792731674404, 0.14204571226472024]",False,0.8000,0.1000,0.4000,0.1000,0.2000,0.0100,2.0000,True
27,nogo,Correct Rejection,0,2.0000,"[0.0, 0.0022594693724708693, -0.04080225194423729, -0.034188445755108925, -0.012059374584090399, -0.014389579957710038, -0.02572683175433614, -0.022109687685590282, -0.007885140184075422, -0.021717178484735512, -0.0032392388332784343, -0.0006281909941235064, 0.018856661702978356, 0.02141373321331609, 0.019457003722588954, 0.017538474733924843, 0.03124045577932045, 0.01403593191199903, -0.0062205173134185394, 0.011645108926378947, 0.015767348253714154, 0.03770212877823711, 0.03622250963163657, 0.0425839664773112, 0.04268949264472125, 0.06042955801728399, 0.06794453029741285, 0.05797928394826224, 0.04314832760033237, 0.07716863896116162, 0.07999373501282389, 0.060370786689181485, 0.06122961582333992, 0.08817932289706458, 0.08854885784871694, 0.09474243792572921, 0.07514630221226368, 0.08301778757721119, 0.06902412803241385, 0.04339877986182364, 0.0074989284408027365, 0.013605852840705448, -0.0020947040447596467, 0.014797237415452462, 0.025556737233678264, -0.003916954687901587, 0.008910776100606465, 0.017897147296657624, 0.020334484338472104, 0.04845761211130147, 0.050391122702890444, 0.04460591141427761, 0.016115986860482386, -0.012989660015561202, -0.01550076004736171, -0.026112278230134036, -0.0686801678720435, -0.09912373395872333, -0.10928530071558423, -0.12745082829731477, -0.11039020186714735, -0.10707599468345765, -0.09009268084557777, -0.12140826217697967, -0.13749361196555282, -0.1309684056117643, -0.11684320899870686, -0.10595216869506538, -0.09367848218782017, -0.09649392940674721, -0.11136511499140428, -0.08724721202535793, -0.06786539258687688, -0.05319555136898821, -0.05719224003685839, -0.04140586148400213, -0.0343048028239309, -0.049355267623910605, -0.03855557715751278, -0.062367334963987886, -0.0465494288928347, -0.05725436928305449, -0.06440601142150731, -0.050738750580106386, -0.07444733330613296, -0.069106135373742, -0.10101614427570647, -0.0715464125098625, -0.07254498956815209, -0.06716041467214409, -0.060664720009671325, -0.051048358433183595, -0.04409626658635528, -0.0038098683409635015, -0.015347214085944602, -0.029267428930510216, -0.03928309893734136, -0.03634597873356336, -0.013930757363474714, -0.015819055000057414, -0.0377142017667117, -0.022749013416652045, -0.026051155252892436, -0.037241251976182055, -0.015917499550715905, -0.009937980989089712, -0.03902734515353509, -0.02583741929236403, -0.029970076228979927, -0.03548743039536584, -0.06616366376955102, -0.05375322284205285, -0.06591567517899825, -0.04785598959953564, -0.04992192596999552, -0.04544754936285636, -0.025143753087022668, 0.004647717440644364, 0.0032589927816726602, -0.010524232847854857, -0.022418039764171165, -0.04008688178458693, -0.03790253866600817, -0.04748078538138682, -0.04883977348875667, -0.05325537215006396, -0.056261961488625715, -0.06654460995114875, -0.036636889285165244, -0.028186189724536542, -0.05077498333285774, -0.05232994355939203, -0.08087872291572729, -0.05820942922825581, -0.056495160319480646, -0.0641612144375041, -0.07755049589622856, -0.1203463870241975, -0.10947428713153322, -0.15083321057494511, -0.15550502346517714, -0.1388287259432344, -0.1773297061457671, -0.1762085692373349, -0.14930793330627098, -0.13876302353011383, -0.1438957978545597, -0.15275939006170214, -0.16428265075598536, -0.20023619135603019, -0.20303230645973364, -0.1821336532415718, -0.15372521784908152, -0.1717571465842101, -0.18444281103585222, -0.18722565154384554, -0.19951276609300728, -0.2286182946113252, -0.2241215970149803, -0.22297747339569235, -0.2233801336125815, -0.2423285510044415, -0.2450251800151322, -0.2604888872379129, -0.24703206920806448, -0.23944241529900173, -0.260303265693552, -0.24757195198188217, -0.24778072344443555, -0.24287034301461816, -0.2889173271534559, -0.3006647928256809, -0.30545115464361716, -0.31934606001638155, -0.3328483861646555, -0.34236002912238156, -0.38044542432778705, -0.36559544668034505, -0.3530362858777249, -0.3609904684898081, -0.34113101270062895, -0.3744160165572408, -0.34259672468704067, -0.30284999455259326, -0.30349361025137106, -0.3403481758998008, -0.33066573412884703, -0.32947188069144095, -0.31876036927335044, -0.34114049137300817, -0.30797787589268644]",True,0.8000,0.1000,0.4000,0.1000,0.2000,0.0100,2.0000,True
28,go,Hit,1,0.4000,"[0.0, -0.008477265557827587, -0.021803247703844897, -0.018346143118668425, -0.027180736921117273, -0.03466365006607735, -0.05418899338606828, -0.02338207310614733, -0.03780022169424614, -0.016239053992844355, -0.007873739400444928, -0.02036025565529668, -0.00816122454343534, -0.02085463974810498, -0.02654971786082957, 0.011312864274636143, 0.0014680566383568974, 0.01644085726531791, 0.007781733962967427, 0.014423112636936672, 0.023638120065744814, 0.007528609746388477, -0.032613852845111826, 0.004153481213674572, 0.022805864837486707, 0.019261811889862743, 0.07165013099477546, 0.06860862693229666, 0.07982021646682874, 0.0960653736983339, 0.1303879510413326]",False,0.8000,0.1000,0.4000,0.1000,0.2000,0.0100,2.0000,True
29,nogo,False Alarm,1,0.2000,"[0.0, 0.035026949147118465, 0.07200116281481747, 0.08913939205089828, 0.0637417879820947, 0.04020320782909613, 0.07968955077014056, 0.07291616803562966, 0.09727432239525871, 0.08551333374055398, 0.11478722649270831]",False,0.8000,0.1000,0.4000,0.1000,0.2000,0.0100,2.0000,True
30,go,Hit,1,0.1700,"[0.0, -0.011816047666419763, 0.02862766723003947, 0.03726039953919145, 0.06473068654325753, 0.07084692011004637, 0.09197887332506682, 0.1226940368851569]",False,0.8000,0.1000,0.4000,0.1000,0.2000,0.0100,2.0000,True
31,nogo,False Alarm,1,1.6200,"[0.0, 0.009847046967525945, 0.0007985689641308892, 0.0025306562202082592, 0.021747103685257497, 0.0366526112268315, 0.04243791686889341, 0.047626748895671006, 0.056429687622676014, 0.04944034532264733, 0.03713281152171016, 0.05812474424461737, 0.024575765663013775, 0.040856849870098313, 0.011101837037456055, 0.0140740916156841, 0.03838279153517308, 0.024218165097272322, 0.05188538025237212, 0.044246795573890406, 0.0669425965439529, 0.06462310119843231, 0.03515837630366116, 0.041276984187719336, 0.018631883724389817, 0.01646686572482109, 0.009325189458008544, -0.0005962525812583021, 0.03547769785023433, 0.01218987395249823, 0.007985370553039892, 0.007483226758638258, 0.0017632985120685889, 0.04977003206317783, 0.008739396059982495, -0.021131560908180295, -0.03382531182282715, -0.0033497881319814148, -0.002914639595259507, 0.025809068195135308, 0.04750401474856517, 0.048972087254517876, 0.058433960931035624, 0.0527092893518279, 0.07207969150671165, 0.07869242182598239, 0.08958420019742913, 0.08629802240166999, 0.07675481782046961, 0.08643540004401754, 0.08277984826257266, 0.06660068571459962, 0.036133397322784575, 0.016000990350832803, -0.004736831516191482, -0.03962951136660553, -0.05122707946116165, -0.059612886036211066, -0.06767016681082555, -0.035594059480099735, -0.024724855290073292, -0.047638233382675865, -0.05501216119292969, 0.010579499912424822, -0.04398433914675734, 2.5228302486607346e-05, 0.024310871891077612, 0.029781017120513797, 0.03933196704878909, 0.06494558851254667, 0.039260059289116814, 0.0202460988330863, -0.0025185057395727926, -0.008561269904348067, -0.006730848580104719, -0.015716131883303577, -0.029772917382210686, -0.04314003425161312, -0.04707277117051672, -0.054605668718981815, -0.018113537440799465, -0.02710242460406113, -0.07212525335096559, -0.0924042223393288, -0.10310526731107444, -0.11285706100031562, -0.12988257847158602, -0.14695953318951574, -0.1571930831745457, -0.15352701035696031, -0.17875395998110444, -0.18306547330185366, -0.1935518690961651, -0.18100079226903942, -0.14312925401912316, -0.120880786903726, -0.10617707159361596, -0.0974582467079672, -0.08845605374043722, -0.08141602232338974, -0.0501729272180793, -0.0650775548147556, -0.08766298357717286, -0.06016748844724859, -0.06610382218686678, -0.07123846919530763, -0.0591258089882728, -0.056348453550090535, -0.06276439239803656, -0.03368742547163921, -0.021320441930853744, -0.005466695514465381, -0.027469036697002087, -0.034372840150048156, -0.05276012204504038, -0.06445941617099767, -0.06937081190389782, -0.08430199133364633, -0.07307857680221709, -0.058772386515282556, -0.053015105997219925, -0.058595136079865, -0.05186169590399114, -0.06574121184033353, -0.07557198332785281, -0.07746467064487393, -0.05268460315492164, -0.045940409919419424, -0.04376680998523749, -0.054764635200102676, -0.029569903931597027, -0.032560707160803025, -0.034448403417992275, -0.07012231274166962, -0.05570903843894087, -0.051519545098507924, -0.04504466681249377, -0.039523260385182085, -0.07002378558424288, -0.07549099532475742, -0.04117003692678662, -0.019078372577287315, 0.0012107983066111383, -0.01407654216510791, 0.028712978878452852, 0.022605869693490984, 0.02789942321979899, 0.01512021446508221, 0.06132319123259549, 0.09522011580343297, 0.0765016609389873, 0.08339109964094579, 0.1323849807459343]",False,0.8000,0.1000,0.4000,0.1000,0.2000,0.0100,2.0000,True
32,go,Hit,1,0.1900,"[0.0, -0.012388466792899185, -0.029392202710142562, 0.00392317912363048, 0.006984514406067677, -0.007725483472497411, 0.029569186450825336, 0.014755051009655712, 0.045831534106440266, 0.10319165462257712]",False,0.8000,0.1000,0.4000,0.1000,0.2000,0.0100,2.0000,True
33,go,Hit,1,0.1700,"[0.0, 0.03467486884909837, 0.05616645539062338, 0.06814469426857903, 0.08058316563961015, 0.08352671845122624, 0.07585419544743946, 0.10147131412121782]",False,0.8000,0.1000,0.4000,0.1000,0.2000,0.0100,2.0000,True
34,go,Hit,1,0.2500,"[0.0, 0.013706492424756873, 0.0055094089385562366, -0.011119762425171535, 0.008829053901784924, 6.0660562972065374e-05, -0.005571263716740349, -0.01927826325523943, 0.009020888432718012, 0.01308839832736475, 0.05079628952486334, 0.05517981515436059, 0.0752016849423646, 0.061252144524697585, 0.09286273808319145, 0.10227109514486037]",False,0.8000,0.1000,0.4000,0.1000,0.2000,0.0100,2.0000,True
35,nogo,False Alarm,1,0.6700,"[0.0, -0.047128097753888945, -0.04373108676736728, -0.037923363317697675, -0.06532430773683331, -0.07762503370118973, -0.0985366867555735, -0.09183538528218707, -0.06967931954230007, -0.08350237274247051, -0.040857632448671515, -0.03200411112882535, -0.0588673645680375, -0.08006333761636257, -0.09276006630452126, -0.07831474380102361, -0.07271263118959806, -0.05608237900568289, -0.010477054861470908, -0.028689331101136573, -0.031619278829305736, -0.03184987690562375, -0.07788743340754223, -0.07285797310243528, -0.09815187466890116, -0.0840346806760183, -0.06476069316110993, -0.04402073596798743, -0.0654496019928217, -0.0514590304005903, -0.06540997895964543, -0.08281160051994736, -0.07605483570744775, -0.06556901573125197, -0.08113888287469509, -0.08741861479367923, -0.1024876938952994, -0.10025579890020232, -0.10137926845103737, -0.08185363949645921, -0.1079535838771576, -0.063449543531287, -0.030433173803813253, -0.038548474111949345, 0.0012849236216064402, 0.02994440829756254, 0.01917517527378159, 0.0313834797115856, 0.02661084282535845, 0.03335251433260247, 0.03806186018732967, 0.054622078298338775, 0.05110632121911629, 0.07322949679130515, 0.0866029912117801, 0.09165208344522657, 0.09866604849475914, 0.11281140410399279]",False,0.8000,0.1000,0.4000,0.1000,0.2000,0.0100,2.0000,True
36,go,Hit,1,0.1500,"[0.0, 0.003499816610853893, 0.010298945827955756, 0.034153169114034085, 0.08980765630645425, 0.10234319227388441]",False,0.8000,0.1000,0.4000,0.1000,0.2000,0.0100,2.0000,True
37,nogo,False Alarm,1,0.2300,"[0.0, 0.00582561133345738, 0.02617504739994361, 0.042547276010671466, 0.027178148106233375, -0.009412865914276244, -0.03677968061218209, -0.0014895444847878234, -0.013709983752349527, 0.02550516252142685, 0.012921189340502964, 0.05054541412861388, 0.06684430992494389, 0.10618459700889826]",False,0.8000,0.1000,0.4000,0.1000,0.2000,0.0100,2.0000,True
38,go,Hit,1,0.3600,"[0.0, 0.008012301833674693, 0.003485533480163174, -0.0014280471904817987, -0.004277027032746728, 0.021175509224390588, 0.018504963982768727, -0.006132705159960748, -0.02058803697585221, -0.006041997532623529, -0.024928670160686103, -0.006852489070987851, 0.00916270983171237, -0.0022375608414215847, 0.014754123375044118, 0.02387948739779008, 0.03106610257831764, 0.03304267503534611, 0.05620740678385516, 0.05898854994332137, 0.028578273240937577, 0.049278405404686254, 0.014413091202657158, 0.019274331352790185, 0.0720913242978024, 0.08035501477201348, 0.12819035541123716]",False,0.8000,0.1000,0.4000,0.1000,0.2000,0.0100,2.0000,True
39,go,Hit,1,0.2700,"[0.0, -0.008466998812723236, 0.013895686450061059, -0.020052051593001958, 0.014619125559060347, 0.020764634173213357, 0.021077087387670917, 0.026196485420774632, 0.049658249600981974, 0.03210150331923777, 0.038944298218130405, 0.043868772632020055, 0.0467957521083633, 0.05672918166672175, 0.06351481583519242, 0.051311323532812966, 0.08114898835571753, 0.11563239548663094]",False,0.8000,0.1000,0.4000,0.1000,0.2000,0.0100,2.0000,True
40,nogo,False Alarm,1,1.6800,"[0.0, -0.00010499479919414923, 0.016073430998365387, 0.006325467163453858, -0.026126237274103313, -0.021766857414964282, -0.02879437174715163, -0.02018395755963127, 0.006133385706861491, 0.022235767782133768, 0.02676477407723849, 0.011551802856621041, 0.006114975929359457, 0.03067683795319367, 0.05064521280967804, 0.031143305268822533, 0.0032092729524950195, -0.05644546592056466, -0.05350511141015399, -0.048683482699116126, -0.04119229310580436, -0.0501432308517275, -0.015981658528653644, -0.04464337026091109, -0.06785600469073266, -0.0768313120159849, -0.08094134296732154, -0.120702804172341, -0.09794480262887828, -0.09055589979395778, -0.10349434606560372, -0.1256127767816336, -0.12500396443465614, -0.10162846597840253, -0.1100435445222694, -0.11909319331740074, -0.15030460708449342, -0.17798167122430017, -0.17348897982990705, -0.1814145803176555, -0.19086451519644845, -0.18233613453791447, -0.19897632905830473, -0.21266421191963894, -0.19317379188364361, -0.2020892696089028, -0.1770599595900971, -0.19011029085300057, -0.1644603613883715, -0.18868369520460257, -0.16065621433063826, -0.17310485761446592, -0.1880874928237263, -0.20137802516883505, -0.23094133263590025, -0.2264285374605229, -0.22342155305225314, -0.22751899588886407, -0.21718153426601622, -0.18347582997282685, -0.1928912912144742, -0.1736902826638008, -0.17452959568844292, -0.15660821584944393, -0.17571089635848286, -0.16886929549511412, -0.15887473269424413, -0.16867821044641299, -0.14965110073762858, -0.14068910226883796, -0.1757299489620163, -0.1804483631598987, -0.13651016697537896, -0.1561640941372369, -0.14102504525622486, -0.13630400975048734, -0.14914688366933593, -0.14801437828559832, -0.13691913286908794, -0.14713959738344992, -0.15031879045525065, -0.14798486421608958, -0.12737533088080238, -0.13259103218074328, -0.17379380330943187, -0.16799258223204488, -0.18273059002821046, -0.1566120093412838, -0.12636601372653317, -0.1146826921954049, -0.11309902587192282, -0.06758791755614635, -0.11169495795260728, -0.10839887620322988, -0.10799073633337963, -0.14183748102656388, -0.14875497933306442, -0.16473246347675044, -0.15980942057258263, -0.168493998699929, -0.15040110842311272, -0.17326825372661375, -0.15989872267649358, -0.14031150533452977, -0.14656060592600223, -0.13516751601947619, -0.11079832562810946, -0.10592299288215311, -0.09581639325697548, -0.1178543475736351, -0.11722023925598107, -0.110200044393284, -0.1351424411876052, -0.11925039070042659, -0.09079615909145826, -0.07586797568283771, -0.09474217672537585, -0.1082288273323961, -0.1021820352240111, -0.060358500857777504, -0.04917214606620624, -0.06094235986444987, -0.09139161365116902, -0.08859580655361302, -0.07482440885487833, -0.06316251430233609, -0.0677232091993743, -0.07826815056689958, -0.07566290062767804, -0.054773028618173195, -0.0559752325239387, -0.06596321168803129, -0.06360490435361583, -0.056046123224964925, -0.030764185940827835, -0.05791426096675015, -0.061560751337715706, -0.06616552634396645, -0.04408400425378141, -0.015521523398783921, 0.007578160935180406, 0.035997302068994444, 0.036019906706064114, -0.00828657479200439, 0.005198956482093141, -0.013833054388629407, -0.016018157087882283, -0.012693734548017074, -0.028238199915631923, -0.03688682696006399, 0.034445391619249956, 0.04413403220632759, 0.06607730786915662, 0.050732281009254324, 0.053731544389316474, 0.05079039374636529, 0.0755712357850384, 0.09044977933299733, 0.10251748094744895]",False,0.8000,0.1000,0.4000,0.1000,0.2000,0.0100,2.0000,True
41,go,Hit,1,0.1500,"[0.0, 0.025380251598925464, 0.047443785160574625, 0.0558944017630796, 0.0953225345004429, 0.12468054347121085]",False,0.8000,0.1000,0.4000,0.1000,0.2000,0.0100,2.0000,True
42,go,Hit,1,0.1600,"[0.0, 0.0042744243002169205, 0.008631153245231882, 0.009240377096132128, 0.03921126782629336, 0.07058609054385198, 0.10664090943964018]",False,0.8000,0.1000,0.4000,0.1000,0.2000,0.0100,2.0000,True
43,go,Hit,1,0.2400,"[0.0, 0.02764519104462289, 0.03670620950966163, 0.020854499223967243, 0.01656424873281216, 0.028497512805906726, 0.06112902375472438, 0.06936946591180185, 0.06036111996324256, 0.05094685691726443, 0.06302495607157022, 0.07945555628901628, 0.0794239794645897, 0.07997697155298639, 0.10245012590047668]",False,0.8000,0.1000,0.4000,0.1000,0.2000,0.0100,2.0000,True
44,go,Hit,1,0.2200,"[0.0, -0.02257699564087306, -0.013224578499318613, -0.029479579246248354, 0.02137877394893338, 0.03655881200650216, 0.0710519632756761, 0.05730911313421347, 0.04448198815533394, 0.039011891793162515, 0.03638972047531117, 0.05789292510467333, 0.1278728460690599]",False,0.8000,0.1000,0.4000,0.1000,0.2000,0.0100,2.0000,True
45,go,Hit,1,0.2000,"[0.0, 0.00496258860326867, -0.016744609289879094, 0.003174080215313131, 0.0143052773774087, 0.01101606606341048, 0.012572718235987677, 0.0523908755889983, 0.08694783693345216, 0.0960570313113491, 0.14881857240905957]",False,0.8000,0.1000,0.4000,0.1000,0.2000,0.0100,2.0000,True
46,go,Hit,1,0.2900,"[0.0, -0.00702235646086642, -0.00198571758002275, 0.016346428360345805, 0.0036430601756626546, -0.008301874818007385, 0.015398389060247288, -0.0029424194277489595, 0.015454708510544982, 0.03238674100981631, 0.061829812220051864, 0.07725509221818372, 0.09750197421726248, 0.07055222089820146, 0.04279088970154777, 0.08694068524594599, 0.06857778300203249, 0.09510520242194528, 0.09151615939010638, 0.11289708541908838]",False,0.8000,0.1000,0.4000,0.1000,0.2000,0.0100,2.0000,True
47,nogo,False Alarm,1,0.1900,"[0.0, 0.014012479463744882, 0.02088653334906314, 0.02093745633471908, 0.03075035492092751, 0.020969916785116158, 0.04866443674660847, 0.07595833080273354, 0.07573269899141133, 0.13757943635720835]",False,0.8000,0.1000,0.4000,0.1000,0.2000,0.0100,2.0000,True
48,go,Hit,1,0.2100,"[0.0, 0.03937468243973575, 0.04605809676778833, 0.0413916226701469, 0.053167477536659416, 0.05299490136888137, 0.0574472101404845, 0.036594163773188665, 0.04303568046107507, 0.06694590590100301, 0.08706766078874216, 0.10316868585600955]",False,0.8000,0.1000,0.4000,0.1000,0.2000,0.0100,2.0000,True
49,go,Hit,1,0.3000,"[0.0, -0.009983144851876988, -0.02901235455054073, -0.046032577516062975, -0.009158508752254657, 0.0006923015365046022, 0.027910742509110215, 0.04427010805136035, 0.051639556085853126, 0.044237739194081124, 0.026902633879446133, 0.003474780948018303, 0.022618739123135355, 0.05360252554660905, 0.038729470914755176, 0.02119018192997002, 0.04118560799478063, 0.059177687041294905, 0.08167080020764117, 0.07975136746701046, 0.10481408400389935]",False,0.8000,0.1000,0.4000,0.1000,0.2000,0.0100,2.0000,True
50,nogo,False Alarm,1,0.2500,"[0.0, -0.005215537126313082, -0.010608614443161728, 0.013203059417320806, 0.012808398056993473, -0.00594878436183041, -0.0304426565458591, -0.02798609865478421, -0.01659318156007681, 0.0066415105452116985, 0.009126415058090307, 0.037640245497868666, 0.03901389588811341, 0.09502299155513269, 0.09744504159969303, 0.12931674696900086]",False,0.8000,0.1000,0.4000,0.1000,0.2000,0.0100,2.0000,True
51,go,Hit,1,0.1700,"[0.0, -0.03153504725786899, -0.02709846862570954, -0.00048318544621121437, 0.05153890146957062, 0.0651243490286668, 0.09851425074858867, 0.1121526850632943]",False,0.8000,0.1000,0.4000,0.1000,0.2000,0.0100,2.0000,True
52,go,Hit,1,0.2900,"[0.0, -0.0051396240967520514, -0.01277635981521662, -0.027991361702239745, 0.027675311384131956, 0.004159709026534904, 0.021033703435385638, -0.0007992361240906735, -0.006360546428179405, 0.019642521180196132, 0.0027346788407056864, -0.007096020385527233, 0.016241993896075797, 0.054008604318380185, 0.04728580906175067, 0.07304259704675498, 0.09340019110926273, 0.08596071991633733, 0.09756139463171074, 0.11224669585379154]",False,0.8000,0.1000,0.4000,0.1000,0.2000,0.0100,2.0000,True
53,go,Hit,1,0.3400,"[0.0, -0.014315381614141146, 0.005491843537347232, 0.020658918556849565, 0.01552969056007972, 0.007919793790544938, 0.03929253521620566, 0.012474414845296593, 0.032721162133725404, 0.04222038175701608, 0.06293628271925192, 0.08153987147039354, 0.05008853491083122, 0.03397099511093128, 0.04240389796061221, 0.041499690350457114, 0.07695232078171378, 0.04048271497694568, 0.06699357442927528, 0.07233781472116596, 0.05066543358092053, 0.06748241534881363, 0.08598571933025143, 0.09610274809094607, 0.10443249051900463]",False,0.8000,0.1000,0.4000,0.1000,0.2000,0.0100,2.0000,True
54,go,Hit,1,0.1600,"[0.0, 0.012786048844147881, 0.01645144850005492, 0.025204826775959928, 0.027460892725602183, 0.06326135309781925, 0.1025556071222098]",False,0.8000,0.1000,0.4000,0.1000,0.2000,0.0100,2.0000,True
55,go,Hit,1,0.1900,"[0.0, 0.021850075005650185, 0.05121119910933737, 0.05432725899399635, 0.06605228547698812, 0.04950241170727391, 0.06267854287244191, 0.047748839995790625, 0.09890691564381615, 0.11692300511242248]",False,0.8000,0.1000,0.4000,0.1000,0.2000,0.0100,2.0000,True
56,go,Hit,1,0.2000,"[0.0, 0.031124840711878987, 0.054297886060051655, 0.04266401821372032, 0.04048492924064703, 0.06045051920579454, 0.04514883724312435, 0.07189988176191552, 0.05591595115225001, 0.07772143963976245, 0.1078977467888266]",False,0.8000,0.1000,0.4000,0.1000,0.2000,0.0100,2.0000,True
57,go,Hit,1,0.4000,"[0.0, -0.03316503172792599, -0.05080000022083414, -0.03329784102659746, -0.03974441021886748, -0.002406966719299644, 0.027960875209273293, 0.007844392643163323, -0.0020505426557895848, -0.022392249739451867, -0.04743617938604444, -0.0868960672906797, -0.04882337303425177, -0.0015679451935100147, -0.03261431315563515, -0.018434713065975522, -0.01048476977986476, 0.011379283577746905, 0.016028884070454684, 0.014906184964491597, 0.024004918957887825, 0.015310674573975714, 0.02098688832146242, 0.044254611764245715, 0.04278937279943455, 0.056118248464571224, 0.06790949059614948, 0.07253056859068552, 0.07236236006851718, 0.09049188115518497, 0.12096098041684562]",False,0.8000,0.1000,0.4000,0.1000,0.2000,0.0100,2.0000,True
58,go,Hit,1,0.2400,"[0.0, -0.010450804206804502, 0.029978182557471266, 0.036769525427866954, 0.04656378466235227, 0.06119084653087807, 0.08503081933136819, 0.07755565682745677, 0.08220826521848498, 0.07570534142835306, 0.049257770029143805, 0.07219482982692674, 0.06537014352460686, 0.07056590693885893, 0.13072318450575116]",False,0.8000,0.1000,0.4000,0.1000,0.2000,0.0100,2.0000,True
59,go,Hit,1,0.2100,"[0.0, 0.015143528482312226, 0.032840160535223616, 0.027476245470958043, 0.047609456509340814, 0.03452648436722398, 0.05619918295489835, 0.07711379284142361, 0.07654495407425589, 0.07580585813281758, 0.09424215069564704, 0.11343820622676493]",False,0.8000,0.1000,0.4000,0.1000,0.2000,0.0100,2.0000,True
60,nogo,False Alarm,1,0.1900,"[0.0, 0.015353984916133231, 0.03380659089307219, 0.021227801013754943, 0.04071227206902408, 0.031292437979233714, 0.031873455520867934, 0.04493881253639256, 0.08188328680716922, 0.11380838393775738]",False,0.8000,0.1000,0.4000,0.1000,0.2000,0.0100,2.0000,True
61,go,Hit,1,0.3100,"[0.0, -0.017413299857342086, -0.013892887107011488, 0.0009473038669466066, -0.004802925663852138, 0.01673094961453133, -0.0025631091729909246, -0.0032241627548136344, -0.007549975759639555, 0.0051123400726476535, 0.011251736647206405, 0.01667325850246747, -0.0021872861761161808, 0.012520380274703098, -0.0012999595328775579, 0.013281097341389561, 0.011022133002012824, 0.03140990993857508, 0.026523647262856824, 0.04932661650816801, 0.055189991048115325, 0.10043927449530596]",False,0.8000,0.1000,0.4000,0.1000,0.2000,0.0100,2.0000,True
62,go,Hit,1,0.2000,"[0.0, 0.0018251088334984662, 0.017163788513794787, -0.004795906182291514, 0.00011916602319254985, 0.02817062102994898, 0.02234506432744278, 0.054692879175018284, 0.07150329156563584, 0.08879321709139723, 0.1277617650857412]",False,0.8000,0.1000,0.4000,0.1000,0.2000,0.0100,2.0000,True
63,go,Hit,1,0.2100,"[0.0, 0.02752663541768357, 0.026447808408748878, 0.0439804012043952, 0.046938460030343715, 0.04198442808868817, 0.04162630023856408, 0.04437890581031103, 0.045611667335738584, 0.05982485543407723, 0.05735742857830828, 0.10468197506757637]",False,0.8000,0.1000,0.4000,0.1000,0.2000,0.0100,2.0000,True
64,go,Hit,1,0.2800,"[0.0, -0.031213415290032125, 0.009411816278878736, 0.022675929087800716, 0.043976428238409124, 0.021316036244591958, 0.034227346099644215, 0.051466518587775026, 0.043046302352138716, 0.04146770794384273, 0.06493537223171783, 0.05823947955401438, 0.06483993038179087, 0.0623653545442251, 0.058584643791041, 0.05235014550134855, 0.05304676682934203, 0.08655497984682972, 0.10476273324399993]",False,0.8000,0.1000,0.4000,0.1000,0.2000,0.0100,2.0000,True
65,go,Hit,1,0.4000,"[0.0, 0.021968685291776577, 0.030351675916954847, 0.03979309657650065, 0.02853144037335005, 0.007940127396134894, -0.005977037039142798, -0.008735741282867405, 0.009849766522582199, 0.0015656237717488301, -0.0017266989062097605, -0.020441556131341347, 0.020245435539097884, 0.0007019178314144787, 0.010054126948447605, -0.0002127898495279737, 0.008984623393519249, 0.017356725165973436, 0.0187217702878628, 0.009536144848940404, -0.028900179262003705, -0.00337843052411102, 0.005208067316625023, 0.023220168776570897, 0.09564657029291079, 0.09208763442229866, 0.09812753232540944, 0.07962416233661596, 0.07048917970065792, 0.08821578125357729, 0.10302885076455881]",False,0.8000,0.1000,0.4000,0.1000,0.2000,0.0100,2.0000,True
66,go,Hit,1,0.2100,"[0.0, 0.01951208346962164, 0.023263721411665248, 0.00644722545582594, 0.04867150918029086, 0.01977604657712439, 0.04860972869845634, 0.07649382305449641, 0.08185839223543315, 0.08651129849181326, 0.09052118605055753, 0.1012698835848866]",False,0.8000,0.1000,0.4000,0.1000,0.2000,0.0100,2.0000,True
67,nogo,False Alarm,1,0.2000,"[0.0, 0.023725826921030254, 0.03394678230567899, 0.03142726362562444, 0.05471766663503249, 0.06849824049886208, 0.03868913858233006, 0.040947525661417565, 0.06835031998351318, 0.0755284832083161, 0.10675504522662677]",False,0.8000,0.1000,0.4000,0.1000,0.2000,0.0100,2.0000,True
68,go,Hit,1,0.2200,"[0.0, -0.0011566008377755996, 0.018364128292016058, 0.032615184490860614, 0.01270117031103253, 0.02850945257062561, 0.04352204075466155, 0.04957121432675803, 0.04186702438278364, 0.05903589709410099, 0.08557883805916072, 0.09387151212565478, 0.125331102131512]",False,0.8000,0.1000,0.4000,0.1000,0.2000,0.0100,2.0000,True
69,go,Hit,1,0.1600,"[0.0, 0.004105917308569325, -0.013691349162333622, 0.010292739330297855, 0.036464084173090335, 0.07666356170460208, 0.1080820943455315]",False,0.8000,0.1000,0.4000,0.1000,0.2000,0.0100,2.0000,True
70,nogo,False Alarm,1,0.2900,"[0.0, 0.028353530401412374, 0.06921467191921055, 0.06598241319444012, 0.024141244534036203, 0.04041849349988954, 0.011070204655980059, -0.004520545415392218, -0.01016332439864229, 0.005144355065509518, -0.03330140993550678, -0.05220555930585876, -0.03135435255012051, -0.01822673531020686, -0.007696332978624073, 0.0082869516208305, 0.021838876552769882, 0.03123708552676234, 0.05957052450174253, 0.1040119655346641]",False,0.8000,0.1000,0.4000,0.1000,0.2000,0.0100,2.0000,True
71,go,Hit,1,0.2300,"[0.0, 0.03207705210833593, 0.02137793068111242, 0.022204040965923155, 0.025735937202266822, 0.03788099726226055, 0.017052859003837188, 0.020741890431502433, 0.0245653427178737, 0.055146733570738016, 0.05428327952939674, 0.06997931010069243, 0.0868746897959514, 0.10804328081664848]",False,0.8000,0.1000,0.4000,0.1000,0.2000,0.0100,2.0000,True
72,go,Hit,1,0.1900,"[0.0, 0.00837649342074494, 0.0118044146855459, 0.013792754417164467, 0.00468877231162609, -0.014272569051580634, 0.049838601027393105, 0.06180979155653023, 0.0962090909302507, 0.1172498357925777]",False,0.8000,0.1000,0.4000,0.1000,0.2000,0.0100,2.0000,True
73,go,Hit,1,0.1400,"[0.0, 0.043669137586186554, 0.06643209296075997, 0.08686820572862997, 0.10418634465341087]",False,0.8000,0.1000,0.4000,0.1000,0.2000,0.0100,2.0000,True
74,go,Hit,1,0.1800,"[0.0, 0.030854352411919476, 0.026565025429043085, 0.004702266464501378, -0.0027858016253676007, 0.02544709579029876, 0.05492851785826372, 0.08771265507054134, 0.10428272617128158]",False,0.8000,0.1000,0.4000,0.1000,0.2000,0.0100,2.0000,True
75,go,Hit,1,0.4500,"[0.0, -0.020689671209691975, -0.02049992528529954, -0.025713947206562726, -0.028649606629801545, 0.015067234430068882, 0.015641697824759947, 0.025023164932645645, 0.03390453000929718, 0.05315067386406886, 0.02522417213111105, 0.02503115572905351, 0.009844856614203524, 0.01713556323442341, 0.020200913832885716, 0.03134614538046089, 0.035389276450908044, 0.03134356123617155, 0.04579644332416935, 0.041162688980678555, 0.06117565126723249, 0.06388656323369148, 0.0703471257872204, 0.08158329698504684, 0.05504298459750696, 0.03731411318617281, 0.04757398071119578, 0.07397717588174196, 0.07739257885923076, 0.052032842141948206, 0.062339923541176845, 0.07225937342717464, 0.07303109325801566, 0.08537132107801894, 0.08030652781115147, 0.10807456293291183]",False,0.8000,0.1000,0.4000,0.1000,0.2000,0.0100,2.0000,True
76,nogo,Correct Rejection,0,2.0000,"[0.0, -0.034223754657378404, -0.031213380615182598, -0.057877997349796505, -0.05581468869635948, -0.04979830831590116, -0.03774637553415739, -0.08814345720298178, -0.05672211934691188, -0.10907234002606402, -0.11120627239608713, -0.1083094306246398, -0.08470045446464297, -0.07861909610761184, -0.10526375306011546, -0.114284784762438, -0.16821140315051503, -0.18082275588375368, -0.18743572640387662, -0.16377057963060515, -0.14063628380517817, -0.08643951711904407, -0.08275813143393913, -0.10380763299956652, -0.11187701875367617, -0.13599417676110623, -0.16296198004124515, -0.15359444657447724, -0.1313402748118265, -0.09235393399852002, -0.1271913665869536, -0.12860633234590496, -0.12192127041536605, -0.12493956908954168, -0.14693157414879338, -0.1440732838403475, -0.16934754365346721, -0.19565786150099337, -0.15753611382836993, -0.15402251694977356, -0.16212122902643938, -0.18513636361027663, -0.16513278577446128, -0.18824441164251882, -0.20660632313394478, -0.2212658247139625, -0.23103692848661328, -0.24026285125169616, -0.23987549635100025, -0.22877071320095144, -0.23933693048103238, -0.1977809410481224, -0.19547550035328953, -0.1584390960740399, -0.1360655465254686, -0.13914187399068162, -0.10926962240017282, -0.08908757596965716, -0.10262371515837648, -0.1218211104312852, -0.13812824579151423, -0.13761340459268254, -0.11045831518885353, -0.11059909182546065, -0.12595340524804788, -0.11899910866152998, -0.12525200512650791, -0.12607938432415192, -0.10588675863973082, -0.10816844214477836, -0.147662667559891, -0.14273391630781854, -0.1753363116672273, -0.19893022593243664, -0.2108000385010861, -0.2063232253541485, -0.1874501011947492, -0.157842737468246, -0.1468967560072598, -0.12431733254927818, -0.16733892252043392, -0.17644801267872953, -0.14045779422224824, -0.15876999588658033, -0.17746101710401568, -0.19668424151093158, -0.2012221054731838, -0.21018655796125355, -0.197634323314208, -0.2103082105139061, -0.21439208142444238, -0.21543136902779708, -0.24877867976802412, -0.25953122287917507, -0.25867548375554617, -0.27907987362881814, -0.2956024812464687, -0.2974751002674413, -0.30717640703000865, -0.2865653156199078, -0.27966108908232223, -0.2657344759637703, -0.2633306390583204, -0.2342700676458043, -0.24724431715024495, -0.28940310135707425, -0.31024994137768896, -0.32239096024325364, -0.3191245377108022, -0.2733007705463563, -0.27468845227219146, -0.31286657637694043, -0.2803696042043603, -0.28245689035314736, -0.2648119339777364, -0.298748250903197, -0.2917257553888409, -0.29245410542918127, -0.30054948654526187, -0.30185598344628595, -0.2777599252857578, -0.31624969676261966, -0.3351349836849751, -0.32553534778708587, -0.3447038352780318, -0.36884332919113183, -0.3691796019498717, -0.3739706178270541, -0.3423586797201366, -0.3332407730008136, -0.34212874935083093, -0.3749073707656871, -0.3651557061245588, -0.37004616853988276, -0.3472351024105603, -0.3798360673492349, -0.3831678504658307, -0.3920850597457588, -0.4221918013602798, -0.4435096464186019, -0.4659479245900033, -0.45771518684341983, -0.42151886814754125, -0.4060617693339087, -0.4272803916984076, -0.40600211207450604, -0.39917129646553484, -0.40053262295420644, -0.4101035560243878, -0.40637635553332757, -0.4350100970319091, -0.4533583649998948, -0.44500634614430706, -0.45011792607575746, -0.453759264601684, -0.42599719885110776, -0.44877414587856534, -0.4904476166617138, -0.4922625978175719, -0.5081673699882172, -0.5279588532256899, -0.5486315715834611, -0.5512783398186789, -0.5521016522963544, -0.5633984445937653, -0.5642764393287033, -0.6064883862339435, -0.6218385193056342, -0.6221517400576425, -0.5929978597505625, -0.5681048579086992, -0.5708600093245545, -0.5487230947960375, -0.5718425413115018, -0.5462765021425643, -0.5463299892395851, -0.5291805672841924, -0.5219727146507386, -0.5049302335058065, -0.48520066389874245, -0.5236220697911126, -0.5277634459256298, -0.5127629617342481, -0.5214272343280655, -0.5453050471852585, -0.5459859390867512, -0.519810767281408, -0.48227265467056124, -0.5044031454473576, -0.47952460843547934, -0.4771018897341379]",True,0.8000,0.1000,0.4000,0.1000,0.2000,0.0100,2.0000,True
77,go,Hit,1,0.2900,"[0.0, -0.019554605062951747, -0.03966322487809909, -0.03558958720543983, -0.028440682169398906, -0.02362952217421612, -0.020270988756671666, 0.008201014437138741, 0.049362687542339904, 0.07419343657624511, 0.05063712914518116, 0.002978387827707797, 0.058974342578194276, 0.05085352604666694, 0.01940636668236377, 0.020561213632238323, 0.05670671347650305, 0.0703019341135096, 0.09749846925572175, 0.10852519771160019]",False,0.8000,0.1000,0.4000,0.1000,0.2000,0.0100,2.0000,True
78,go,Hit,1,0.6700,"[0.0, 0.02314984383875824, 0.0400077998066215, 0.029073265425904923, -0.000702360164297991, -0.023549482979119563, -0.0324979935951671, -0.047954941229924414, -0.08163205065277121, -0.08694471165396205, -0.09094143478405631, -0.1320887156147902, -0.12708409278617733, -0.1193899431929657, -0.11359317881104194, -0.1281026809798867, -0.12193311228807995, -0.1472990610191368, -0.12202329936571764, -0.13614043398256614, -0.10085243872472939, -0.10417239658450476, -0.09704051165618556, -0.10079433364346777, -0.12109425906049814, -0.12871341625188606, -0.1254987912103588, -0.1378683955838555, -0.16163942778832613, -0.1559112949851403, -0.1799257193650681, -0.15974167300787304, -0.15149290082604158, -0.1771101995569153, -0.1586006552177867, -0.14203956322006406, -0.1259065373798111, -0.11569912555443873, -0.0863011714923753, -0.0850399425657239, -0.04708063182877745, -0.013658280076443055, -0.008228186094740164, 0.05670067429562659, 0.02722200080621219, 0.0708434055900931, 0.07972367568131, 0.08175353774145004, 0.05397039957583407, 0.04261217563742241, 0.05761664462747273, 0.08774203486658436, 0.07275416813340332, 0.057171377134171086, 0.07181162499398641, 0.08602868103330126, 0.09719633314052253, 0.16182110835807784]",False,0.8000,0.1000,0.4000,0.1000,0.2000,0.0100,2.0000,True
79,nogo,False Alarm,1,0.8700,"[0.0, 0.0053111947755713675, 0.013915203518155703, 0.028653912383177084, 0.0034300646456129243, 0.0010524642643606995, 0.0313593184274092, 0.020292276065629444, 0.05469376587705079, 0.04478004774035786, 0.035662616284582324, 0.0382520768143222, 0.04143619718746256, 0.025160965863943306, 0.027753115946238693, 0.001176675669837153, -0.025873113892596902, -0.010113514727499526, -0.00782916762171305, -0.05410589509581916, -0.06049229544684878, -0.07207480137930866, -0.09208721566925046, -0.07217893332647218, -0.06897849234534133, -0.05612627631842125, -0.05613207065700804, -0.05373499024537766, -0.053427768898633134, -0.03575860399948752, -0.0036103790798270793, 0.003468493628457578, -0.010784017166389812, 0.020601751145709425, 0.02106163352223088, -0.0015768663345502934, 0.03033616890142582, 0.06757022123937823, 0.04791512866105613, 0.02596929851275358, 0.02698767776132669, 0.052982838897319605, 0.02034028469475041, 0.0086798623113117, 0.026397462061732935, 0.015827632611559627, 0.016035234035517903, 0.022643300543648565, 0.010675625271691533, 0.005720401316739754, -0.006505507263294345, -0.015729215185050657, 0.009682301167807172, 0.01912382399896227, 0.018929404691393144, 0.026049379203139624, 0.004675335105436627, 0.05436113701477591, 0.0389154480047531, 0.03606588095756577, 0.020680847860529004, 0.03528307811753802, 0.010217152026612334, 0.022907902373407577, 0.028696406373791745, 0.03018480777474821, 0.015110748886853875, 0.03465077132910259, 0.04705796405346281, 0.03681882941197559, 0.03430762627434971, 0.03941048708063913, 0.027610111142085385, 0.05188477432899516, 0.03458927790993192, 0.018758417682341346, 0.04310211799602955, 0.10094400653183364]",False,0.8000,0.1000,0.4000,0.1000,0.2000,0.0100,2.0000,True
80,go,Hit,1,0.3000,"[0.0, -0.026967529362490923, 0.0013695268757209153, -0.011017757064366224, -0.024074758581448086, -0.06454107272740975, -0.039883149689323605, -0.03808627667262688, -0.042078875817798775, -0.0033661382268999895, 0.00394387444649597, 0.014047659098958285, 0.01172858256959417, 0.019540045088469217, -0.0074176159115736315, 0.004382334859564383, 0.0012385606987269197, 0.016781102019991466, 0.038939445270359245, 0.05163060708234188, 0.10040064919249325]",False,0.8000,0.1000,0.4000,0.1000,0.2000,0.0100,2.0000,True
81,go,Hit,1,0.3300,"[0.0, -0.014727271577957442, -0.030922667745612847, -0.01462793660827702, 0.034850730042369604, 0.023973719100232282, 0.04379058910729052, 0.038782257566061185, 0.019041557655612253, 0.049478958562005, 0.03068596420525461, 0.022826043324150166, 0.027229078108997017, -0.006695194259379797, 0.04571732924107793, 0.0408410222878743, 0.054438203870180654, 0.06594237147516267, 0.07220351349752988, 0.06271527659597884, 0.07331655106476614, 0.09895011205148996, 0.09942984785534371, 0.16052063736459313]",False,0.8000,0.1000,0.4000,0.1000,0.2000,0.0100,2.0000,True
82,go,Hit,1,0.2000,"[0.0, 0.0015226531553085773, 0.03711022797289407, 0.025090702259114254, 0.03386914700881461, 0.001330458198507245, 0.01172883833875382, 0.009662381286356566, 0.03538907611511257, 0.07554991232685569, 0.10673320136835864]",False,0.8000,0.1000,0.4000,0.1000,0.2000,0.0100,2.0000,True
83,nogo,False Alarm,1,0.7000,"[0.0, -0.035619526167339065, -0.04750216371264702, -0.0017678106427020807, -0.03494848112378378, -0.03243213971679408, -0.03360065382604238, -0.017769881191236025, -0.03558626542134839, -0.02810637726034942, -0.028784362871778553, -0.02814630037002608, -0.025218066917879672, -0.017991924258824413, 0.01311156736412803, -0.010844935154371224, -0.02663724362901465, -0.031149517680821946, -0.030072930848796656, -0.014184010327267273, -0.012297657650277903, -0.007755062520941104, -0.004088483554993937, -0.0058506601660870804, -0.027307129514891303, -0.003977126988244997, 0.02202013593421824, 0.0077493432826810146, 0.03415655409759245, 0.031269701365979695, 0.055915606763294365, 0.030212836273433578, 0.01836005958920694, 0.02689484324519633, 0.020884620803148117, 0.0519626448592849, 0.04928086690125407, 0.07518065791662258, 0.0655885907897108, 0.05568109608082771, 0.007874570475250857, 0.020376154137885516, 0.06182088472535561, 0.05409127997443534, 0.023338900877039295, 0.014952646706339008, 0.01625525454101522, 0.025668918720696734, 0.045189544604575485, 0.03222384146541984, 0.0305665688628976, 0.06438999789069967, 0.05804077113990417, 0.06460847486448926, 0.07131402920635137, 0.0701076133698936, 0.080728712326278, 0.07405076232469879, 0.04987708979895705, 0.05693364117210649, 0.10209270781794846]",False,0.8000,0.1000,0.4000,0.1000,0.2000,0.0100,2.0000,True
84,go,Hit,1,0.4200,"[0.0, -0.004387318376214271, 0.007547318239909314, -0.008335442913966441, -0.006645743908022816, -0.029104007428939864, -0.02975901238652881, 0.004753612355510507, 0.011397249303334113, -0.007210591142593235, -0.018443170263180146, -0.003282430374418461, -0.007769386138238094, 0.0046371355075266515, -0.0025565232142318595, -0.016002359900008062, -0.02172067266977849, -0.031182973340489, 0.006648561360812551, 0.03510604165668595, 0.04039830500642493, 0.06505393747103662, 0.0646386352784573, 0.050250116639570894, 0.029163978743010736, 0.014716189812476382, 0.042583897955114657, 0.04705818248636768, 0.04796269050704647, 0.05203349174503493, 0.06783789140277553, 0.08326266970568831, 0.1039031993051654]",False,0.8000,0.1000,0.4000,0.1000,0.2000,0.0100,2.0000,True
85,nogo,False Alarm,1,0.3500,"[0.0, 0.018778384913671224, 0.04835270572702208, 0.022820227465213002, -0.013119783105054118, 0.012766829354511157, -0.014924524551350092, -0.03596019724715084, -0.007495464719283428, -0.004151016950565414, -0.00040181338899989956, 0.002119229274946009, 0.012346085798568784, 0.024270416619991728, 0.04155688992035639, 0.051302728441051285, 0.07219012591680635, 0.08476648087012359, 0.07005301664099228, 0.06050429688750979, 0.07427601094063944, 0.08492682635272363, 0.07963505937859106, 0.08804120454866317, 0.09800400784713215, 0.10454702333415795]",False,0.8000,0.1000,0.4000,0.1000,0.2000,0.0100,2.0000,True
86,nogo,False Alarm,1,0.9800,"[0.0, 0.0025645040268497, 0.02406078092654578, 0.034757084557795796, 0.027645940192677614, 0.030007180720393274, -0.005792081300132972, -0.021846080039351845, 0.0019073503257561256, 0.005351745628171364, -0.01518876118474205, 0.01751084353996689, 0.003225029584673987, -0.0200328531513529, 0.003101052826165712, 0.03379392686019955, 0.04331932201441421, 0.03328334549831087, 0.02847648252096605, -0.0003320444862938282, 0.00045328104245212, 0.005801559237637256, 0.02459343597582871, 0.0310538148710843, 0.01464027514936225, 0.037392335484738456, 0.04728307510922704, 0.06928156277888403, 0.06564989551435649, 0.029313730424195855, 0.030868453587924772, 0.01822071420818627, 0.011744268977080776, 0.029665799834838812, 0.002316401711250679, 0.03293201268084636, 0.030289955994416334, 0.004736271288200873, -0.011002967967646212, -0.017678726705726577, -0.005553606662614206, 0.0061904784221282864, -0.013617031479743344, -0.01865282576307646, -0.015412181704981686, -0.010513270244289575, -0.004566278971579568, 0.04722106465016007, 0.03356256916570212, 0.026051390062112205, 0.03551071129547148, 0.022770204733803263, 0.009293664356484297, 0.005132343992882112, 0.0034802570487246186, 0.017186278975253433, 0.021808860915325873, 0.04182561938667596, 0.0765105234048648, 0.07557606836856567, 0.047863797879005215, 0.05493444170045658, 0.04174858608465766, 0.03746521313947038, 0.021015855703969424, 0.04204043274477154, 0.037815526959061846, 0.03359236024742335, 0.044004369635002503, 0.021470721148583543, 0.018862829140919538, 0.026867747009453834, 0.0041260181523411835, 0.022444961001262552, 0.061086118524921365, 0.045337270400446994, 0.05878169037449879, 0.0918516847518156, 0.07385360885804076, 0.06273257433646699, 0.08294956070486177, 0.0715434021044118, 0.05530116988948905, 0.02650646837660704, -0.004741307230638082, 0.03868800842269275, 0.04987468757435139, 0.08215893331241095, 0.10170550818898941]",False,0.8000,0.1000,0.4000,0.1000,0.2000,0.0100,2.0000,True
87,go,Hit,1,0.3000,"[0.0, 0.02526497359059052, 0.030906060581332113, 0.0396562277629007, 0.0398563841923581, 0.07584736754179895, 0.033414171466955245, 0.018585873885197172, 0.01438308225502387, 0.033354421069305085, 0.02722809081753094, 0.012717559681211393, 0.022763929424322458, 0.023868152236196146, 0.010524827493743904, 0.04164776909639211, 0.057768105064517815, 0.07137205893316484, 0.0842060283254931, 0.0856439424428832, 0.10769669709299307]",False,0.8000,0.1000,0.4000,0.1000,0.2000,0.0100,2.0000,True
88,go,Hit,1,0.2100,"[0.0, 0.007642214221521522, -0.0010131719022898602, 0.020710252558468836, 0.018989763220780893, 0.039589811561166484, 0.06972930326765346, 0.04928977050467899, 0.04727482235231288, 0.07500954138400276, 0.08160525126169606, 0.1109388258380519]",False,0.8000,0.1000,0.4000,0.1000,0.2000,0.0100,2.0000,True
89,go,Hit,1,0.1600,"[0.0, -0.009245589274903425, -0.008495741487309326, 0.013907626579623647, 0.03495848969988336, 0.07142662536568306, 0.12677830579496244]",False,0.8000,0.1000,0.4000,0.1000,0.2000,0.0100,2.0000,True
90,go,Hit,1,0.2500,"[0.0, 0.00962657454909212, 0.02518068560349055, 0.036287599810767776, 0.07283849749943805, 0.08906353607193901, 0.06134481423709485, 0.05359570087156529, 0.04204529269280856, 0.0434337625618866, 0.05656498869880479, 0.07382745544125123, 0.08670135314837815, 0.07262456425406032, 0.09710869353161647, 0.11924917110531859]",False,0.8000,0.1000,0.4000,0.1000,0.2000,0.0100,2.0000,True
91,go,Hit,1,0.1500,"[0.0, 0.003962828741509712, 0.026706612812943075, 0.03633922039953485, 0.07604111359192309, 0.13882772141034772]",False,0.8000,0.1000,0.4000,0.1000,0.2000,0.0100,2.0000,True
92,go,Hit,1,0.4000,"[0.0, -0.012787220572203141, -0.003381198532972753, -0.027855474795300282, -0.07036061770988505, -0.06876461301326013, -0.0569135114780078, -0.0686732250748547, -0.07648205538643477, -0.06432979624849378, -0.07631009751770032, -0.048522247795350186, -0.07439595952253376, -0.0709793421195223, -0.06901920638551456, -0.042345186485561126, -0.05934623212542142, -0.042794232835989356, -0.020908039388973766, -0.041405783473112745, -0.033993416501761776, -0.038994935436643806, -0.03436760192084125, -0.021148788139841754, -0.0015305850820213664, -0.0034412682999514395, 0.041209679497590204, 0.043252728242736994, 0.06011028883054461, 0.08752947770174165, 0.1140478721946716]",False,0.8000,0.1000,0.4000,0.1000,0.2000,0.0100,2.0000,True
93,go,Hit,1,0.5600,"[0.0, 0.019566903436792002, 0.009091756494098789, 0.010145121812089753, 0.02743888889326079, 0.007224695163336566, -0.02920947721527393, -0.040769083335412334, -0.02404171721207099, -0.034371699078260126, -0.013715187086550267, -0.007077288721227121, -0.03803800036399423, -0.03869082298293844, -0.07182830318710713, -0.0802391235519408, -0.08071596189656642, -0.07996109561024975, -0.08244256200629987, -0.10837765476676123, -0.06247871035459744, -0.06144780841118574, -0.08721295263896085, -0.07758161203135544, -0.058634411323302965, -0.05020811431056646, -0.019206104151354344, 0.0044996734289457115, -0.01940686345435805, -0.0027048891340704685, -0.008043057508154055, -0.028731994275967454, -0.007239413926383408, 0.032790870586703595, 0.0033970825043358258, 0.02745279026210047, 0.026520053858127286, 0.02029815977315185, 0.046141146438696004, 0.04044442832648039, 0.05286864864038979, 0.08645242717278818, 0.06802836638642112, 0.09117101994282108, 0.052636487193811234, 0.08645536063944623, 0.11053934926775742]",False,0.8000,0.1000,0.4000,0.1000,0.2000,0.0100,2.0000,True
94,go,Hit,1,0.3000,"[0.0, 0.018095885575526965, 0.03830249042452229, 0.04512198733582852, 0.054584891777299416, 0.06465403439774556, 0.0549326231897685, 0.040424293363916945, 0.049440095850500784, 0.04099438837412056, 0.023800447236807156, 0.05365968111822545, 0.05064598434575804, 0.03605864602301742, 0.04055506782012249, 0.04412918520116545, 0.06535553633337363, 0.048131892820376145, 0.046153671701824904, 0.06042687513594251, 0.10478849863501297]",False,0.8000,0.1000,0.4000,0.1000,0.2000,0.0100,2.0000,True
95,go,Hit,1,0.1500,"[0.0, 0.019054648933151425, 0.030548872078092974, 0.0445752591436574, 0.06692817395638856, 0.10218730983066106]",False,0.8000,0.1000,0.4000,0.1000,0.2000,0.0100,2.0000,True
96,go,Hit,1,0.2000,"[0.0, 0.020352950313822622, 0.04515485479448132, 0.05509630320527831, 0.04703190128583007, 0.023282858170353395, 0.03672213789879557, 0.07450449463298994, 0.09137924961440254, 0.09193701867287069, 0.11445195689333115]",False,0.8000,0.1000,0.4000,0.1000,0.2000,0.0100,2.0000,True
97,go,Hit,1,0.2600,"[0.0, -0.018054119011206477, 0.011117897151232639, 0.02143374342936535, 0.040165077866682844, 0.0645467273218158, 0.05305473233567411, 0.0354741289946424, 0.0522908519645345, 0.035407294630929134, 0.02767345962888346, 0.05446461343608608, 0.05942651866053327, 0.06789862438564608, 0.07992082925003688, 0.09769365811392669, 0.10801712737504698]",False,0.8000,0.1000,0.4000,0.1000,0.2000,0.0100,2.0000,True
98,go,Hit,1,0.2200,"[0.0, 0.034058439346628916, 0.05730135904021998, 0.04419767721857446, 0.025131405006669282, 0.02991033300103626, 0.03743081362492356, 0.03897809831642811, 0.06714569166291584, 0.08571999288827778, 0.08318732835240762, 0.07786673140739743, 0.10488143456320051]",False,0.8000,0.1000,0.4000,0.1000,0.2000,0.0100,2.0000,True
99,nogo,False Alarm,1,0.3100,"[0.0, 0.011465540880499815, 0.016397470951750075, 0.013738931215644878, 0.008433065668848242, 0.022005488373542246, 0.0575907173198931, 0.02769363406888592, 0.06501691408276784, 0.06198174550741643, 0.05442796312154956, 0.05032409048977367, 0.0461901679367711, 0.028915925837330058, 0.026117829830561747, 0.016836104272629448, 0.018468883695612087, 0.021019935400859523, 0.051469686798646025, 0.05639439452455213, 0.07702756883080658, 0.10537736353057839]",False,0.8000,0.1000,0.4000,0.1000,0.2000,0.0100,2.0000,True
100,go,Hit,1,0.2500,"[0.0, 0.03422948562503711, 0.06286207096839705, 0.028012837990575738, 0.04350896665512296, 0.0242552939123472, 0.014207817108258632, 0.02840133540649159, 0.04893584660924094, 0.049675287093073, 0.05453099936920289, 0.012285057403354935, 0.03904523221834234, 0.06846603378514159, 0.08066163836918849, 0.11362236492606102]",False,0.8000,0.1000,0.4000,0.1000,0.2000,0.0100,2.0000,True
101,nogo,False Alarm,1,1.0700,"[0.0, 0.008797040004829573, -0.009046937925727833, -0.018933053855978953, -0.0259200992276577, 0.0012281542356117787, 0.03806630202156501, 0.03900990199620009, 0.04942101718497883, 0.040125406362105744, 0.01849497605512258, 0.029196341676245213, 0.04244568433930003, 0.0707867756468624, 0.07024318833755132, 0.06954004474487813, 0.065544683467359, 0.06670913335717356, 0.023509863404764034, -0.003824319477021585, -0.009099289308135763, -0.05248857778908777, -0.0635248846669399, -0.07280377199055887, -0.043017386288923945, -0.022514476885841808, -0.030894596161073158, -0.01973373486378506, -0.02112891992340938, -0.025007870678880818, -0.016890122395974386, -0.03590428751092007, -0.03703381930326407, -0.017925788281799172, -0.021895135785514892, -0.06037066888563121, -0.025633875108267985, -0.01409851735640681, -0.029316082137069314, -0.06014661483814439, -0.03032485418431498, -0.041395599226344296, -0.014947370325050818, -0.030089184706677544, -0.033370877894096214, -0.0516351764499344, -0.04171641558650422, -0.05375085018600527, -0.10445239586852068, -0.09656518127382997, -0.07479833353209422, -0.0776871142026637, -0.0768055229982707, -0.10589333234545681, -0.12499487437401982, -0.11796927862986828, -0.12263065563086745, -0.12266436986793278, -0.09161066702099316, -0.058208460188533276, -0.05480974180582868, -0.05950017706507168, -0.06888877351359625, -0.026171026130869836, -0.03115299880969515, -0.022012270954514388, -0.0505525984878771, -0.03981980856519755, -0.03261954620012945, -0.035803182070857156, -0.08146762637211456, -0.05928580561164837, -0.021692051132367808, -0.015667568056689, 0.0002581842868055982, 0.00909553357432016, -0.0024007747889888287, -0.035408741909886146, -0.009861351251576469, 0.03960535007998832, 0.029759561512924027, 0.006078540486756389, 0.04592874075108906, 0.05813262278005613, 0.05374787162649068, 0.05827525605631317, 0.03574767507636067, 0.0452866464032041, 0.029438665196018003, 0.01796400416562114, 0.029035549159319003, 0.0562178772584237, 0.07698674387688495, 0.07617060259104297, 0.09921585470285407, 0.09277839947454405, 0.08503016621441815, 0.1179572720056681]",False,0.8000,0.1000,0.4000,0.1000,0.2000,0.0100,2.0000,True
102,go,Hit,1,0.1800,"[0.0, 0.02751307880425721, 0.07149286730987774, 0.06714055385590004, 0.052515088999317144, 0.06578042092615563, 0.064240990689927, 0.09605087827614456, 0.10385624501646293]",False,0.8000,0.1000,0.4000,0.1000,0.2000,0.0100,2.0000,True
103,nogo,Correct Rejection,0,2.0000,"[0.0, -0.0007048820102869621, -0.005829392917640789, 0.012449408492726494, -0.007042629011350648, 0.026106771385765882, 0.020054036989808878, 0.02020049400296199, 0.006191414554350471, -0.009858669909276117, -0.01331591261920274, 9.960688672659007e-05, 0.004619136416513513, -0.039857374756344606, -0.03609778028420551, -0.01893752142096575, -0.05395825196949797, -0.06211734682182574, -0.041100013899795645, -0.07525844900218973, -0.06926061578261099, -0.060541393022742404, -0.08892483358954639, -0.07248500793026072, -0.06256389993589406, -0.08087038611689559, -0.07116271713391717, -0.058927350751796524, -0.025686604281472625, -0.03888783426297697, -0.06201385225306548, -0.07120968017347554, -0.1122818500169128, -0.13268248246596623, -0.1309472499161252, -0.11744848505738945, -0.12285041015922415, -0.13445061858781301, -0.0675075727462594, -0.07048856720753477, -0.05664802302333936, -0.04120782320536809, -0.060544866829034406, -0.06441656517704764, -0.041472838029650023, -0.04313288766661531, -0.030526947168200466, -0.019413697291596692, -0.030530722391647967, -0.03755018639895, -0.004417338741465535, -0.0005055373972004118, 0.006590137948925415, -0.0030490182992294144, 0.008864004407835522, 0.0070198923023565875, 0.0036138105427030343, 0.00021038439804780618, -0.010971625618931368, -0.00811894462849343, -0.0071042458990919904, 0.01923066173006117, 0.0195765084848457, 0.014465743918494124, -0.005116157920852821, -0.027118022476591702, -0.012709108006524944, -0.004841645985345665, 0.0063454277468085706, 0.02925895522957398, 0.03559147580350226, 0.028097602201460643, 0.02816248391620651, 0.01957324283140774, 0.03677542573851711, 0.015607053185948978, -0.032169719405486935, 0.01080654216639805, 0.030312007942937317, 0.0141745777080923, 0.011978612108699837, 0.028206561935126526, 0.011545086519378828, 0.004929972431728522, -0.02122117025032168, 0.009981363538633495, 0.014058910027100177, 0.037107201456684065, 0.009783439694401489, -0.01667679999280354, -0.06288260535366871, -0.03211051411911427, -0.05481551833371751, -0.06283277310476001, -0.0651222501169328, -0.09816783944759497, -0.10113606643978558, -0.054653844493391564, -0.07906574557667242, -0.06773696050830512, -0.08264808133448948, -0.08758008767743597, -0.057979094739535886, -0.0795484607986969, -0.07696629381405286, -0.06375915332680482, -0.0956315586808518, -0.13238332612282028, -0.1480180604603495, -0.17312969466240782, -0.16766392870974078, -0.17793956788182472, -0.18016010572697577, -0.16924283374995097, -0.1637456287534363, -0.14021224426481743, -0.11405341752277036, -0.13545011245889424, -0.12423721203875969, -0.10724967118930709, -0.0825196782517542, -0.07241946276075352, -0.07720923719665523, -0.06790449716593293, -0.07192324106626756, -0.09000222609721875, -0.11354335700707485, -0.07377209649469392, -0.0830294712161689, -0.08396435577863769, -0.08514671124461866, -0.10340135167943855, -0.08050273979404857, -0.06162204210734798, -0.059857766139278346, -0.022928539695376317, -0.010483805095744505, -0.00650369742261419, 0.017529078555410218, 0.011590322373472262, -0.01539879778146905, -0.026010957662265164, -0.054849917573582624, -0.0810612303628127, -0.10214860556821292, -0.09038919513391833, -0.09209022723380678, -0.13165679358652566, -0.13464855773174025, -0.10084754309548916, -0.1200273757407412, -0.1051553391139223, -0.14426951766362914, -0.13912725378205526, -0.14991442425930568, -0.17101286275583605, -0.17250485406145663, -0.17249384672657672, -0.15927750457828244, -0.14446419326348564, -0.11846406625614195, -0.14837599618489408, -0.15518677737522485, -0.1790600970200294, -0.1620474228322919, -0.1826686394748543, -0.21910950648017893, -0.23462723925945891, -0.22221917881940564, -0.23501794682479332, -0.23541458060820636, -0.22913941946023225, -0.21299049126381298, -0.2196124528438722, -0.2149808698089476, -0.22874835314316103, -0.2608941080275997, -0.28602415856232144, -0.27043518794723015, -0.28455868909876303, -0.2866612389533252, -0.3120297320347683, -0.2922297081731123, -0.2823604612202608, -0.2838189372681738, -0.29025894934004354, -0.2803386210350665, -0.2513566938486187, -0.2866403467443572, -0.3209000235033071, -0.3281911033795509]",True,0.8000,0.1000,0.4000,0.1000,0.2000,0.0100,2.0000,True
104,go,Hit,1,0.2100,"[0.0, -0.013839891236704874, 0.0021679433004747235, 0.03935688769704383, 0.05205370641040616, 0.09451786564743092, 0.0797236794284584, 0.07188472047031652, 0.07723112758295785, 0.07351315468647023, 0.07445966177368353, 0.11213221287796675]",False,0.8000,0.1000,0.4000,0.1000,0.2000,0.0100,2.0000,True
105,nogo,Correct Rejection,0,2.0000,"[0.0, 0.000882942152699935, -0.03759894247154213, 0.010627941561076014, 0.0020911653406450875, -0.01135896230209406, -0.04437230920042388, -0.0573567375392342, -0.041198839941326566, -0.051461309479872076, -0.066851945894412, -0.07267957842882646, -0.1013050832605889, -0.07961997873255491, -0.04867334218001261, -0.058672457836223935, -0.044712606751599236, -0.06349936822271818, -0.051792187836683705, -0.030515196462182346, 0.00037825213213648484, 0.009710764729625586, -0.003516046526910786, -0.008815262087463985, -0.05844256012570162, -0.045508745742368475, -0.058665700597907045, -0.06462546827486192, -0.09097113188515832, -0.10623226870446506, -0.09848605309957449, -0.10658382748328747, -0.14468927022528122, -0.19243319606660927, -0.17471804758611936, -0.1202010272115446, -0.14832426983989225, -0.16550710835257743, -0.16288387421922304, -0.16531698796297098, -0.11422695292638323, -0.13160878944037727, -0.10573959306347964, -0.115485247000248, -0.12971319511942392, -0.14914129970553178, -0.17130498196314672, -0.17043485164495584, -0.16490978931718994, -0.16597418485344126, -0.18094194168458333, -0.1792876045750923, -0.15776348902811937, -0.16018223199626072, -0.16849072622440872, -0.15577154194597853, -0.157415434044695, -0.14837444449194237, -0.1484174215325528, -0.14036350939973385, -0.12633956113518902, -0.14486316731661977, -0.1427884271553317, -0.15069152186623894, -0.17627070976851794, -0.18084895835360087, -0.18045081237256771, -0.19171799173714815, -0.18784126016298755, -0.1871772021242267, -0.1538951219839023, -0.18247094847676806, -0.16139380473933274, -0.19865181478182814, -0.21103416064276684, -0.1917339313557926, -0.17945549740556516, -0.15579898233279027, -0.17497299420352502, -0.16086624309150305, -0.15165195530007916, -0.175414132049887, -0.20043408162179596, -0.19455297027379295, -0.19698337178242692, -0.2264260055034424, -0.21477835811868412, -0.2469753916909576, -0.24020606590635374, -0.24060972299479094, -0.21527462295067346, -0.18221452553409304, -0.17999402259442637, -0.20572770431253337, -0.2064998330774965, -0.2164771093123213, -0.21546425940407504, -0.20960247571542837, -0.20694265461503056, -0.1942290377722566, -0.17034908410047866, -0.17756783323352102, -0.19104606373032862, -0.18285039988512058, -0.1679604636729984, -0.15644768533128506, -0.18930624148841318, -0.2212396173535687, -0.25380183126837286, -0.2971259788172713, -0.3179106154582957, -0.30326887830048127, -0.3192524608855262, -0.3123385707785053, -0.3048566019953419, -0.31395676902173436, -0.28824760707087765, -0.28649457703085424, -0.2767976872145103, -0.24665824938357248, -0.2384871440432265, -0.22445988955348364, -0.22029588983765627, -0.21352183276735334, -0.2281814229852705, -0.1902608354587013, -0.19444357953461472, -0.20220743485897813, -0.17710200710879193, -0.16995654892831535, -0.16171998960605757, -0.16201816411377268, -0.1707981888295412, -0.1596657186908644, -0.15605993743459998, -0.16320886441332924, -0.1533940216821005, -0.19022836577971317, -0.2035171966433273, -0.18143273290643844, -0.1593709762014648, -0.17920922258004227, -0.17006596856633036, -0.18501491762968872, -0.1788106448052933, -0.20665655893570464, -0.1993172125166719, -0.1911063597731707, -0.1418918029562886, -0.11813829108552074, -0.12071987664216981, -0.08514254330690546, -0.05973871515023359, -0.07567418307809427, -0.0738026858972678, -0.061031974645363585, -0.07384837099592678, -0.07543675677956002, -0.05246977557376077, -0.0395306903591665, -0.08660098066842757, -0.07394696154448627, -0.0962937278911288, -0.08919784141572558, -0.11033789056119704, -0.10112175718346304, -0.11683057227309479, -0.13265874535334246, -0.12402494757672616, -0.11124697212558321, -0.1368624110625279, -0.13243066664179606, -0.17434179598636826, -0.20917392247174352, -0.23067173860687953, -0.24286425430332662, -0.2370032589383322, -0.24054499580656208, -0.24489062209076418, -0.24401095720994193, -0.2141460054379474, -0.21361487415076036, -0.22021026937527827, -0.19935775529837954, -0.18478055906377067, -0.18272464630084273, -0.20640176026539964, -0.22079235974129272, -0.21448744276679169, -0.23010209807355417, -0.22821397507049732]",True,0.8000,0.1000,0.4000,0.1000,0.2000,0.0100,2.0000,True
106,go,Hit,1,0.3200,"[0.0, 0.01407261459518307, 0.002599682677334892, -0.02575894924417602, -0.0460917972136286, -0.06384926081681504, -0.07120702597937187, -0.07175524392812177, -0.017638911394367095, 0.009816836318502987, 0.0023408642596675806, 0.0010605914191032777, 0.011308228677033582, -0.01620458733752971, -0.014939940505977889, 0.006182778649779322, 0.014444138269828802, 0.052511603480482734, 0.053208790858291985, 0.03235240090886006, 0.06373348200183365, 0.09132859851270682, 0.13673116416427078]",False,0.8000,0.1000,0.4000,0.1000,0.2000,0.0100,2.0000,True
107,go,Hit,1,0.3000,"[0.0, 0.003963773501596259, -0.004734669558171422, 0.008487530947450674, 0.04194253193942739, 0.03395465870499108, 0.02565277240333782, 0.01572637460065263, 0.01998916254141878, 0.00825722931889844, 0.029622505065467923, 0.07333719260885098, 0.04995472290613461, 0.06693827091652377, 0.05917120209341667, 0.055422007362000175, 0.07854384699956574, 0.04404955450077858, 0.05213310031759802, 0.09379619346435714, 0.11229026419338503]",False,0.8000,0.1000,0.4000,0.1000,0.2000,0.0100,2.0000,True
108,go,Hit,1,0.1700,"[0.0, 0.053362292771037156, 0.05907830644380533, 0.07010284685789725, 0.055830210474475145, 0.07929925524018708, 0.09454366863615542, 0.12474462093443393]",False,0.8000,0.1000,0.4000,0.1000,0.2000,0.0100,2.0000,True
109,go,Hit,1,0.2200,"[0.0, 0.03797501600464813, 0.05639578802692871, 0.05879706264943095, 0.04211959201954763, 0.07176264935178896, 0.05891822173065204, 0.015681285906855837, 0.02335232862572402, 0.03582678163751914, 0.060414857858651194, 0.062613131594509, 0.10821033456541061]",False,0.8000,0.1000,0.4000,0.1000,0.2000,0.0100,2.0000,True
110,go,Hit,1,0.2400,"[0.0, 0.02717771087171952, 0.011283246784104445, -0.01545684411887898, -0.004730265303958911, 0.006836144703431218, 0.007678654418451771, -0.02114035105546719, 0.018397263710100673, 0.01538964998868968, 0.040915347428007676, 0.06876690080796284, 0.08026683849090409, 0.08668975139103542, 0.1474235916081742]",False,0.8000,0.1000,0.4000,0.1000,0.2000,0.0100,2.0000,True
111,nogo,False Alarm,1,0.3200,"[0.0, 0.016315542842019377, 0.0500647316613833, 0.05215617912564874, 0.03314622787196775, 0.03423492713315083, 0.059103990601834036, 0.0807480220742997, 0.06386358957494898, 0.07329973855069491, 0.05712436167304627, 0.08704674989347921, 0.07876535726934293, 0.07458737151581332, 0.06314991525801066, 0.06107883325857052, 0.026662632944622372, 0.02785149602379516, 0.0274974846315277, 0.06965440695549593, 0.09034702092383569, 0.09734967471542005, 0.11567034897027269]",False,0.8000,0.1000,0.4000,0.1000,0.2000,0.0100,2.0000,True
112,go,Hit,1,0.2400,"[0.0, -0.005993684829665127, -0.02662442689423326, -0.012279026510756241, -0.01885369450504526, 0.015756345243129813, 0.02569127599010939, 0.031031912500560675, 0.01282728604182901, 0.005772509302931463, 0.0323783775064899, 0.035924593462351884, 0.05076725377353811, 0.09066295879814118, 0.13509464532830853]",False,0.8000,0.1000,0.4000,0.1000,0.2000,0.0100,2.0000,True
113,go,Hit,1,0.1500,"[0.0, 0.026085073828158455, 0.05528023125579106, 0.08210550364166996, 0.08840648960234616, 0.10464999517089527]",False,0.8000,0.1000,0.4000,0.1000,0.2000,0.0100,2.0000,True
114,go,Hit,1,0.3600,"[0.0, -0.01138166318135311, -0.03941850643496475, -0.03880949167358857, -0.05078178744313296, -0.03564468842436216, -0.03390914438719411, -0.011615080629735229, -0.008524196532252441, 0.017126425685576464, 0.03146387890170847, 0.009695842282671625, 0.023397436101568567, 0.0016994796254242994, 0.007916688897517885, 0.0381951835017976, 0.04264795548531116, 0.02650351143050818, 0.02108912554157942, 0.007368497870755636, -0.01223490453653163, 0.008388675641008807, -0.014787340670625496, 0.056455461372610635, 0.06942596617058641, 0.07967069016080879, 0.1044374709233835]",False,0.8000,0.1000,0.4000,0.1000,0.2000,0.0100,2.0000,True
115,go,Hit,1,0.3300,"[0.0, -0.01694591355742981, -0.030861206391993447, -0.04976683843589621, -0.039519597599000596, -0.04949615748721889, -0.012465082659697091, -0.02545597509662882, -0.003566068667991123, -0.012338308004984616, 0.007271350909657762, -0.004351110388351575, -0.009599748865149608, -0.011060017227331378, 0.022444447300786086, 0.0357065708040492, 0.0602943174504182, 0.039951926086903164, 0.037416463567972846, 0.08210681666519037, 0.07963310445364004, 0.06906324583631106, 0.08812892713617196, 0.12498505531643155]",False,0.8000,0.1000,0.4000,0.1000,0.2000,0.0100,2.0000,True
116,go,Hit,1,0.1400,"[0.0, 0.009688266232383195, 0.03524042510358894, 0.07355395802864002, 0.11733640715270152]",False,0.8000,0.1000,0.4000,0.1000,0.2000,0.0100,2.0000,True
117,nogo,Correct Rejection,0,2.0000,"[0.0, 0.004617341681846625, -0.02633377805803575, -0.06519332876207046, -0.06881027242877678, -0.07377623317026819, -0.057629146195842695, -0.0943560825660465, -0.09043252794135513, -0.08554690397975413, -0.09734836741328588, -0.11903607228788411, -0.11166322947583039, -0.0682468687911709, -0.07212024220412924, -0.10213328146809639, -0.08140074890584602, -0.09014817146773521, -0.10778362590068775, -0.12494752268642503, -0.1242027711280884, -0.12390521396772385, -0.1324283116316021, -0.11958830724997559, -0.12680892643191685, -0.12161642265743854, -0.14620723832209173, -0.10171906112719359, -0.12607405941019215, -0.13794686462606304, -0.18122398683733149, -0.16240894547507376, -0.17219512353068994, -0.18007000227857978, -0.1817657102581293, -0.11614288220636032, -0.14334289326973557, -0.14016129242095385, -0.175287385692503, -0.16983247802337945, -0.2189722198094773, -0.21914573850798214, -0.20534739945212693, -0.19914204480776637, -0.2114548178005694, -0.2046597385006513, -0.20544601371119944, -0.21711782582439867, -0.2397983615676506, -0.22478543108441879, -0.2427068308966175, -0.26499596812830023, -0.29868926964257214, -0.25174355030930007, -0.2744386133239741, -0.2440947556404967, -0.23571563439585858, -0.23788696801396386, -0.21369152060280547, -0.18114222730604423, -0.1892174678622713, -0.206932750142624, -0.21652483052440213, -0.231707779531942, -0.22450747267008855, -0.1994856416439525, -0.2244787388948515, -0.21495988841519287, -0.21857405789129786, -0.18962884129469537, -0.20052274584367275, -0.1695904122355663, -0.16407816430350705, -0.16976002169266677, -0.1919822488087801, -0.20596265493733953, -0.22350565723139798, -0.2555349610662637, -0.2810661126264101, -0.22292305656934097, -0.2321864976292864, -0.19140568870829705, -0.19031868888779038, -0.1705340149253142, -0.1550688676997444, -0.17505854787198116, -0.17889652331536868, -0.1888719552839114, -0.2003512578577507, -0.18916577665497467, -0.17004459388089999, -0.20930979910320768, -0.228053427880118, -0.20790866589586782, -0.18693165465562653, -0.17187814550968672, -0.18712009253233008, -0.18515271140522802, -0.17853180627003043, -0.1782137044044102, -0.19293982064287218, -0.2042704871795318, -0.2216283909996552, -0.2717508081299162, -0.2996140370882132, -0.29412385108156885, -0.22938195749485252, -0.2443598020177195, -0.21570619390689633, -0.21558607321543724, -0.21522459622329168, -0.22442906659685397, -0.2573883587727147, -0.22541743827420502, -0.22343939075062527, -0.20789283253341728, -0.21952434341178406, -0.2117673797673655, -0.19150747370312807, -0.19507437217675638, -0.20966435419657772, -0.21082764058866585, -0.2033794165473301, -0.19711688471300942, -0.17450809438103734, -0.15969918186511248, -0.1485545607904065, -0.17298560923915518, -0.1687396702376906, -0.17028043542864246, -0.1784263486198445, -0.15338202132501702, -0.15057375286241748, -0.15033746605762677, -0.15258528216562403, -0.16700970474561663, -0.16614240914144998, -0.16777740579359268, -0.16635583912071275, -0.14771531236892135, -0.1487247223266264, -0.1613517050755245, -0.12436312230460828, -0.12421214370000308, -0.10670195258190805, -0.11664009912425835, -0.0927685170237264, -0.07284786461141672, -0.05499519448564234, -0.019070295103318556, -0.009453714217248563, -0.013110000253676982, -0.016263523932312125, -0.02547019063733856, -0.02444964585365471, -0.014893730881988063, -0.003017822486839206, 0.002182054768501405, 0.0011474826476920792, 0.030214346891629978, 0.07914646592368037, 0.05374572869920271, 0.0512520568521104, 0.051863433700137455, 0.03197544857566174, 0.011749088822195702, 0.04302716883498316, 0.0165184216465185, 0.0024942291555308093, -0.027138511269231266, -0.010631597151315276, -0.0022137619958316635, -0.013474475337387942, -0.004284818414319148, 0.01101580701913766, -0.014503207640848174, -0.03425119864722949, -0.07452479428194107, -0.05509964463753114, -0.04243756487548172, -0.06781827482373932, -0.08023767208280187, -0.08898252787941943, -0.08459153453105131, -0.02873077205570535, -0.04542387728085004, -0.009043974930479648, -0.0014890506857274275, 0.016367812578829563, 0.017627172969132625, 0.02162064769479403]",True,0.8000,0.1000,0.4000,0.1000,0.2000,0.0100,2.0000,True
118,go,Hit,1,0.3300,"[0.0, -0.021648788742073804, -0.009813670746016924, -0.004100533653428598, -0.020586538688179598, 0.010564156621310456, 0.004850052301673369, -0.011423711431071208, -0.029724486044271123, -0.05771000770270566, -0.02775060859401613, -0.019268591403264937, -0.029128094594306365, -0.010441735009387235, -0.036442384250345225, -0.030602525313478, -0.016317770673628072, 0.0014002506730943255, 0.04441001475022535, 0.06580146637563955, 0.05985906018326545, 0.0440844283752659, 0.08371310829499193, 0.10387310413012027]",False,0.8000,0.1000,0.4000,0.1000,0.2000,0.0100,2.0000,True
119,go,Hit,1,0.3200,"[0.0, -0.03179135259939281, 0.0019926855121482623, 0.01851037151344883, 0.019151613313004436, 0.008013000122757161, -0.015923475173872808, -0.014278481922900486, -0.004965999926335439, 0.0034557132747431146, -0.013110684529596699, 0.01478353721005586, 0.026709479950285053, 0.04864673372821406, 0.01430517166514702, 0.06323406651907909, 0.04164395988010236, 0.042126052247798196, 0.0406077155933268, 0.04011837283083938, 0.09612471857416668, 0.08765300643727662, 0.10872980454046316]",False,0.8000,0.1000,0.4000,0.1000,0.2000,0.0100,2.0000,True
120,nogo,False Alarm,1,0.9400,"[0.0, 0.018447969516929487, 0.02079508230568186, 0.013645197782096604, 0.01196933218359428, 0.04196845861603999, 0.014352709010189112, 0.03446516387365192, 0.036446831963701916, 0.03321693814721698, 0.011437615971964129, 0.04352163082039465, 0.0349482098412775, 0.06585809360032845, 0.0631429606453349, 0.05348974765169241, 0.063002776954661, 0.03666899405752165, 0.041618651067619285, 0.021788175530089902, -0.00962129429417214, -0.01679928551859361, -0.016060016680309794, -0.026018575722128134, -0.03678395693879358, -0.03257760576047515, -0.03629074215315986, -0.04616231895125416, -0.05556536656660797, -0.05861178965480212, -0.008935503599718182, -0.03397135732787961, -0.042434437714680834, -0.015367715388603827, -0.014775128020162311, -0.022109521628083537, -0.00656471151307131, -0.004612459626302928, -0.0031004340447495027, -0.008362278366309088, -0.02826904782654345, -0.012153138734647753, -0.03034777174732229, -0.030443454606625977, -0.030810250854241467, -0.025873407595634404, -0.0037944077493934983, 0.0008758560781683142, -0.011037899193749222, -0.006098800314080462, -0.011603496401479584, -0.04712344598047672, -0.043806503926572045, -0.03176949824613394, -0.026054834848795737, -0.035519605108583305, -0.0570516947871639, -0.04495859182053437, -0.027345175506990733, -0.03652948284926781, -0.02858304775343103, -0.04882350733342037, -0.031104841081191294, -0.015965142763947844, 0.010409393856223866, 0.034395786347431456, 0.04866862779935629, 0.03715840056123971, 0.03992543429737311, 0.027761188227617355, 0.043645211452149, 0.05716212664255878, 0.04873437251477997, 0.03837780272087898, 0.036914721535808985, 0.0503972273199243, 0.040656223135979, 0.05049589441425849, 0.062098859173405296, 0.061850790094211856, 0.05451465716191041, 0.07422658666464821, 0.06965016157459379, 0.09498558716865597, 0.11720037459427997]",False,0.8000,0.1000,0.4000,0.1000,0.2000,0.0100,2.0000,True
121,nogo,False Alarm,1,0.3700,"[0.0, 0.006820679723427474, 0.016337756727531752, 0.01794836055246987, 0.026281807932681714, 0.02036659262765282, 0.02549889674398364, 0.010166666406834694, -0.0009679832945926371, 0.023554101307124348, 0.020533320410619692, 0.0011295564412845335, 0.02330833994171305, 0.058388182398950675, 0.03543456369503195, 0.0014309451976204646, -0.00569178890051013, 0.00046454646230960784, 0.012180049386790733, 0.009621219008905214, 0.02944793549843306, 0.04944261032265008, 0.047545324894817255, 0.04014363394254296, 0.07397773374243807, 0.07932561614221714, 0.08753795331289943, 0.11728684355814115]",False,0.8000,0.1000,0.4000,0.1000,0.2000,0.0100,2.0000,True
122,go,Hit,1,0.1500,"[0.0, 0.001682582881010761, 0.0047998487239845665, 0.029575711664297764, 0.0688477322301647, 0.1032943407933268]",False,0.8000,0.1000,0.4000,0.1000,0.2000,0.0100,2.0000,True
123,go,Hit,1,0.1500,"[0.0, 0.024933445142240235, 0.03754334642744081, 0.05853853500087207, 0.07025612815972518, 0.10951809954235134]",False,0.8000,0.1000,0.4000,0.1000,0.2000,0.0100,2.0000,True
124,go,Hit,1,0.1900,"[0.0, 0.024096821297682983, -0.005590546988396974, 0.030965787229522163, 0.008048546741468349, 0.04519159949802244, 0.06121743332842829, 0.08599923255860192, 0.06996788233964574, 0.10025201089176358]",False,0.8000,0.1000,0.4000,0.1000,0.2000,0.0100,2.0000,True
