trial,stimulus,outcome,choice,rt,trace,timeout,w_s,w_n,threshold_a,t,noise_std_dev,dt,max_time,affect_stress
0,go,Hit,1,0.1700,"[0.0, 0.0017129372538918627, 0.039647214715736026, 0.028572827602902483, 0.043582304154030624, 0.052555128172372824, 0.08234056313372605, 0.1063064365324684]",False,0.8000,1.0000,0.4000,0.1000,0.2000,0.0100,2.0000,True
1,go,Hit,1,0.1600,"[0.0, 0.024146486686875898, -0.002567710926048808, 0.01750254112498563, 0.05922054923572218, 0.08753293250783606, 0.11570188594040248]",False,0.8000,1.0000,0.4000,0.1000,0.2000,0.0100,2.0000,True
2,go,Hit,1,0.3300,"[0.0, 0.005937529426129932, 0.00563072025913848, -0.01650789384500791, 0.007488098156716406, 0.02399182145697475, 0.033009903074129834, 0.07328792356535194, 0.08613812835661935, 0.07986471826741452, 0.06985638142798817, 0.05991952650992306, 0.07126435101011146, 0.08052606313755123, 0.0677939372247007, 0.09219981520445085, 0.08895431525125987, 0.06686660820843444, 0.09146534902404688, 0.08117743768056977, 0.09045876213406147, 0.08714624925529357, 0.09465122692260422, 0.1150494340531721]",False,0.8000,1.0000,0.4000,0.1000,0.2000,0.0100,2.0000,True
3,go,Hit,1,0.1500,"[0.0, 0.07481672414597931, 0.0690396107797835, 0.07716875926899323, 0.09896595161055241, 0.11818988774110989]",False,0.8000,1.0000,0.4000,0.1000,0.2000,0.0100,2.0000,True
4,nogo,Correct Rejection,0,2.0000,"[0.0, -0.020967850278319978, -0.04029103586738193, -0.04625892468358838, -0.043468510435016844, -0.04071345635883982, -0.04313705049357766, -0.0399870264364195, -0.0326541355467735, -0.04326914981579226, -0.04574945033378101, -0.06061605463814784, -0.0863835755276699, -0.08584912708063192, -0.08799004243758088, -0.08689032693954896, -0.07320816259411662, -0.07014695481974206, -0.1026260186609923, -0.11145892145337935, -0.11454559577570705, -0.12342332794314988, -0.15187349834631125, -0.18786218385327227, -0.20265896039339057, -0.21910015144173633, -0.202325086140146, -0.21917364994244626, -0.25457918173513533, -0.2823050373815778, -0.28788692128983745, -0.31098102681707257, -0.3509710979603535, -0.36987359009603904, -0.37421824065621107, -0.3957662476228831, -0.39801006805282907, -0.42747981475480273, -0.4503111457949769, -0.47189970115646196, -0.44965175370269683, -0.45735336517647085, -0.46045245099340176, -0.49581961713018163, -0.4881399312821873, -0.5188099168959448, -0.5577825185468759, -0.5622807863025996, -0.5470683198375458, -0.5259236300664405, -0.5054711126773201, -0.5478823161865528, -0.5368969342324309, -0.5693493424726822, -0.5834300775006875, -0.5899152601275225, -0.5750130656585485, -0.5910303784051069, -0.6075998840114006, -0.6037491034176237, -0.6047730029948595, -0.6096203941652193, -0.6416571111636348, -0.6793977262485901, -0.6989567316015706, -0.6866456019939046, -0.7234370607365107, -0.7419024700135836, -0.751528356314259, -0.7545130878883588, -0.7459466824660678, -0.7226526313115061, -0.7320052628883066, -0.7511577109475045, -0.7377960970754833, -0.7681811375467427, -0.8103724916456617, -0.844173728633559, -0.8410132924765528, -0.8464945954868544, -0.8389943630748631, -0.8635770434138899, -0.8533140701089014, -0.8723801174128397, -0.880261884170713, -0.8925980546036003, -0.881204021896576, -0.9188503437575062, -0.9206704547770699, -0.9245467363224996, -0.9732204291897641, -0.997419773337011, -1.0143087749450943, -1.0039052610190382, -1.008169179608327, -0.9716438323841761, -0.9779486418579351, -0.9886569767622344, -0.9725399160544002, -0.9755867331718526, -1.003297024301989, -1.0636178048005815, -1.0453755227741615, -1.0383523243051467, -1.0418122358400796, -1.0609839298472792, -1.126530495353806, -1.113494311201107, -1.1338933967075364, -1.1560498350756443, -1.1605205857897005, -1.1580723516604938, -1.1901062871632417, -1.216374196788776, -1.2269004550547762, -1.2589158078693599, -1.2544631095985694, -1.2603109356787867, -1.3155349097774443, -1.300088266906234, -1.3101465723208803, -1.3079864064569628, -1.3197685657664235, -1.337039414700348, -1.3271878125617993, -1.3255067902824256, -1.3340175882659633, -1.3253378691020774, -1.322302928623516, -1.308022418795957, -1.2864051741758684, -1.2929301977763759, -1.3280026671000142, -1.3547081064965165, -1.366393685047982, -1.3619780131361734, -1.3807448170814947, -1.3411039932702387, -1.3413010380278039, -1.397815177901244, -1.4164595866285772, -1.4211300611726114, -1.4361767692794127, -1.4392366026800456, -1.4643836340237149, -1.4958044768316197, -1.5018899737211304, -1.492626842136564, -1.4879923790281722, -1.498181211049503, -1.4748323632391125, -1.5034694272658822, -1.5151856982822125, -1.5166429554335106, -1.5174566647761096, -1.487501972908629, -1.489621681756406, -1.4991392647834525, -1.5066479294231576, -1.5313384936799164, -1.5972152206550658, -1.5984252195481452, -1.6036774557754303, -1.5756159047685396, -1.6032561395688785, -1.585114201005114, -1.5754619056907044, -1.552713280916826, -1.5115648224408256, -1.4766353218663535, -1.4591351113748612, -1.4583793339215727, -1.470926277085086, -1.4441585323048582, -1.4529530290281087, -1.4514046530762648, -1.4509077899366394, -1.4351991257553995, -1.4207891101834906, -1.4284809783359869, -1.4689918645754738, -1.4901540115654595, -1.506301738780826, -1.481968437390539, -1.5168703721314918, -1.5543205470762338, -1.568863003097782, -1.5888393075702827, -1.6111923737761702, -1.6059192553947952, -1.6046290414093742]",True,0.8000,1.0000,0.4000,0.1000,0.2000,0.0100,2.0000,True
5,go,Hit,1,0.1500,"[0.0, 0.027153752698369355, 0.026174918823184817, 0.09148868984338554, 0.09581301086202769, 0.11101059702660145]",False,0.8000,1.0000,0.4000,0.1000,0.2000,0.0100,2.0000,True
6,nogo,Correct Rejection,0,2.0000,"[0.0, -0.02082751146822108, -0.029550227790961812, -0.02798164637794915, 0.0096394679401079, -0.023277883600397363, -0.05368199147955234, -0.0456528282814442, -0.050187687578892096, -0.09452147154127466, -0.1637995672895718, -0.17050223485926563, -0.18039251776102536, -0.17729454019464483, -0.1809239507918019, -0.19090633704023596, -0.23540391933141713, -0.22323821501972882, -0.2332843101857974, -0.22891633817865262, -0.21812856087040677, -0.23195909145540552, -0.22692216854381336, -0.2106615824112731, -0.1937628848562525, -0.1727680579387687, -0.17355756150009602, -0.23391088614233657, -0.2512919653637157, -0.23862138194647056, -0.2566001072606466, -0.2724066109160134, -0.30078294700030694, -0.28685367947830137, -0.28546326619526113, -0.288718685319557, -0.29428511323245654, -0.27542775320012386, -0.2844184100099073, -0.2996484832366673, -0.3092165039213927, -0.30994892458408885, -0.3156750664448995, -0.3332432943986281, -0.34735570954714734, -0.37596407212765715, -0.3912291330274007, -0.4365070685848569, -0.4622331886318657, -0.4836709268079054, -0.4817018458284219, -0.484920517103008, -0.5137703692222253, -0.4927379799990415, -0.5064719172414972, -0.5291264942900346, -0.5766075827586127, -0.5714269597440941, -0.5919353304252707, -0.6024368221627988, -0.6231180925622125, -0.6371410164781882, -0.6246096018200141, -0.6643480335109383, -0.6582607450682291, -0.6821863067020569, -0.6738291575844021, -0.7201701850391523, -0.6774752144570206, -0.6859519690927761, -0.7314785357775011, -0.7455669900912533, -0.7735995613258665, -0.8033461929229149, -0.8150289999011746, -0.8600965461095148, -0.8918090726131103, -0.9359028480584397, -0.9312692326599274, -0.941715116528558, -0.9746086821021702, -0.9920804233711129, -1.0202315786442198, -1.030860045810096, -1.0481719832035363, -1.0601862996500755, -1.0612541263843105, -1.0570431259195145, -1.056626321080102, -1.0552419935148307, -1.0419912778347087, -1.0740068075738292, -1.079694293515579, -1.1071177100615743, -1.1310149738341746, -1.1578608348184454, -1.1191456050578767, -1.1598583167603613, -1.1652928970598218, -1.1829027380143973, -1.2170519795150656, -1.1984135474409274, -1.21076683187696, -1.243375214626251, -1.2617335275675088, -1.2488202720159367, -1.2782920242696256, -1.265809812881163, -1.257582605341584, -1.2744607347393044, -1.2975262310375186, -1.2814608499273674, -1.3093980285173283, -1.3092412453556952, -1.2984560624523611, -1.3334649189806793, -1.3312198182396666, -1.3731922643944392, -1.343457812826015, -1.3266921269754752, -1.3325939265673876, -1.3480518775423345, -1.3581997804764265, -1.3099295639563313, -1.351746906247693, -1.3737982586425876, -1.382839186899903, -1.4033770117209976, -1.4263330434490566, -1.466227690138983, -1.491323325260672, -1.5202533323230654, -1.5595948766639267, -1.5929340713727578, -1.6262137957769007, -1.629444612806374, -1.6643526091874354, -1.6714108785321597, -1.6878035945502123, -1.6924958325726767, -1.7033871426075986, -1.708084291289084, -1.7101241626278223, -1.725002429449229, -1.7358394428761172, -1.7482858717711764, -1.7657555516082932, -1.7860473519452986, -1.7995850838636318, -1.8135797192311072, -1.8102853714833942, -1.8104053396900905, -1.7955418181742675, -1.7753598582663623, -1.7920413455426039, -1.7979763135584081, -1.8083432645397857, -1.7822776617873435, -1.785679039646816, -1.7944745213320676, -1.8200467377702596, -1.8202051044202912, -1.8243203094764435, -1.8562753076536564, -1.8534704434895455, -1.8756976015802076, -1.9124271819462604, -1.9308399245807066, -1.9476472339526276, -1.9642161998478476, -1.9777842130968855, -2.017078606128261, -2.0733322187376055, -2.0842230873105967, -2.0684240672217773, -2.0638896800718647, -2.0626583121405204, -2.104284318386073, -2.111570284322363, -2.1316310307365054, -2.1490346751111784, -2.129048990000321, -2.1165533555747755, -2.110239655107212, -2.078109241937603, -2.056769070625662, -2.095277418133004, -2.099978792300336, -2.122964924294035, -2.107541669560613, -2.0834284044137275]",True,0.8000,1.0000,0.4000,0.1000,0.2000,0.0100,2.0000,True
7,nogo,Correct Rejection,0,2.0000,"[0.0, -0.030903686780333315, -0.023190431214347294, -0.01739384713003813, -0.03228208759077861, -0.0710492853049137, -0.08654006870616443, -0.1012032327529498, -0.12085491342776297, -0.1433486746362091, -0.14210886245716278, -0.1606596756298282, -0.18129612532803357, -0.18548562656068607, -0.20209102662398162, -0.21991975853833706, -0.21426750841310982, -0.23217183473491504, -0.24479387804434477, -0.24902848208733444, -0.2662424266830971, -0.2838921207925059, -0.30428901702134326, -0.3289953717865906, -0.33160197247313605, -0.35078615948042907, -0.38577467146180555, -0.39178172113722787, -0.3992341259091575, -0.4157256871005195, -0.43563648037308317, -0.4511076063035672, -0.4704882532112995, -0.4727158948110609, -0.48384812558985857, -0.4935263616150426, -0.4969094965595324, -0.5234666023100906, -0.5470814384596403, -0.5366757205932068, -0.5706671270728265, -0.5624242695778715, -0.5397348253074551, -0.5440668748245776, -0.5455207485953021, -0.5614512350074219, -0.5474435667194677, -0.5291671488872518, -0.5803053650117337, -0.5929720660045024, -0.587101570952006, -0.6180628306752346, -0.6366748791492667, -0.6399503081111332, -0.6533295301933997, -0.6674629679345769, -0.6541230047763947, -0.6712261177838269, -0.7114188492850251, -0.7201272747064223, -0.7380773582450579, -0.7696157722392202, -0.7611099714997163, -0.8165910009819667, -0.8411532061989343, -0.8729822593209005, -0.8694037418273012, -0.9041749660869288, -0.9463226320074004, -1.0038272492380182, -1.009363773799274, -1.0386164329909333, -1.034740344280209, -1.0328789069461926, -1.0465541205496052, -1.038355134385817, -1.0489936259755839, -1.090217729163753, -1.0460394045006025, -1.0520594045408462, -1.0351749380120578, -1.039212734295556, -1.0570547968831816, -1.082917017849819, -1.1061148724676462, -1.1468696192729373, -1.1533075874187784, -1.1413299252591962, -1.164899211835497, -1.1975121315560535, -1.2405639115513878, -1.2352066490889697, -1.254547489821948, -1.2479947910265483, -1.2724382369910372, -1.280114698408332, -1.2826536257861034, -1.2448711778877104, -1.2488346028558646, -1.2492787697522314, -1.2851608894788287, -1.3106607217130224, -1.3189960165414853, -1.3615855168563344, -1.3592369372549604, -1.341464496632789, -1.3382412908938597, -1.3746630494377996, -1.3897489547062427, -1.4187069852948697, -1.4007550444120023, -1.3936029768009368, -1.37365796202927, -1.3865892559706152, -1.4092919238780166, -1.443402363495301, -1.420195859637857, -1.4300856143515428, -1.446206957548737, -1.4338536229168304, -1.4369101233205321, -1.4261809173400581, -1.4115216672141107, -1.4231712779666927, -1.4088807527121174, -1.4118931624877333, -1.4254316526711581, -1.4398815898527346, -1.4467326816046684, -1.4413961518014866, -1.4454375544978715, -1.4108697232696585, -1.437606117254801, -1.469071187468223, -1.5194615328589351, -1.5162891278592654, -1.5222007615415034, -1.507640358373149, -1.5364908893269584, -1.5679978752194474, -1.576761110093686, -1.5700660540448672, -1.5972245840405934, -1.6353769208196485, -1.6285782320513134, -1.6255141612734316, -1.6353188619681478, -1.6436971109530314, -1.6567067273873335, -1.6925646569273383, -1.7472532695953524, -1.7838688243500556, -1.7946439709165947, -1.8198716846363803, -1.8457468428465682, -1.817900691092203, -1.8451083852444996, -1.8765489288255177, -1.8941244773731167, -1.8774356095009452, -1.8814278688063681, -1.8568848358059782, -1.891913324203638, -1.941628977243995, -1.9583164243211955, -1.9913156991164678, -2.0472406183356004, -2.0603043289740604, -2.069542798275208, -2.067626797244509, -2.068518085819364, -2.0515644617432924, -2.0431555698866033, -2.054247625160069, -2.063970478752132, -2.0701536900003665, -2.10091502728529, -2.107083000304473, -2.1173941350201892, -2.1428468016489624, -2.166731777442659, -2.177341963051815, -2.159624370157693, -2.186509183979033, -2.202136942755417, -2.230107511444027, -2.2219407826219326, -2.2350323820774647, -2.254436141775081, -2.2730297918031197, -2.2639329703086806]",True,0.8000,1.0000,0.4000,0.1000,0.2000,0.0100,2.0000,True
8,go,Hit,1,0.1400,"[0.0, 0.03639827781184046, 0.08846782487992189, 0.09094561396321366, 0.10809775398864685]",False,0.8000,1.0000,0.4000,0.1000,0.2000,0.0100,2.0000,True
9,go,Hit,1,0.3300,"[0.0, 0.019787116547409913, 0.02752344333785264, 0.030767364970577436, 0.06272219690342185, 0.07849248438131821, 0.06942446227018004, 0.05172833025313195, 0.028283249088595565, -0.0009170881065470801, 0.021406056953353333, 0.044036302642801686, 0.03050835433851306, 0.020502373845779347, 0.01756123319625511, 0.04085668661934966, 0.06146614482135863, 0.06455059930938441, 0.027721950242365588, 0.019227150125660435, -0.01672758992047173, 0.048400091053293806, 0.08544437832888035, 0.12324663753969176]",False,0.8000,1.0000,0.4000,0.1000,0.2000,0.0100,2.0000,True
10,go,Hit,1,0.2000,"[0.0, 0.0114225721470879, 0.050098435779501974, 0.059717659455249546, 0.08995318122489611, 0.09325924956464332, 0.07655969815656104, 0.07856971536477292, 0.0917181602336144, 0.08140194317331183, 0.10022818433567372]",False,0.8000,1.0000,0.4000,0.1000,0.2000,0.0100,2.0000,True
11,go,Hit,1,0.2800,"[0.0, -0.009104318020226997, 0.010130822573741871, -0.0034087015793750307, 0.0034139455985425357, -0.015921385651813145, -0.03806378518811212, -0.006930107569371673, 0.006018412440543925, 0.020194776966468236, 0.03167445417725631, 0.034652281439879744, 0.04100186710465789, 0.050028294917586126, 0.05425532102638654, 0.03790621106316165, 0.08115354188937722, 0.09073535387522111, 0.11313339777926656]",False,0.8000,1.0000,0.4000,0.1000,0.2000,0.0100,2.0000,True
12,go,Hit,1,0.1700,"[0.0, 0.03093720734934371, 0.02916590251755672, 0.0459135666121595, 0.060770216224816306, 0.08490502145364848, 0.09616257357316671, 0.12854822047600506]",False,0.8000,1.0000,0.4000,0.1000,0.2000,0.0100,2.0000,True
13,nogo,Correct Rejection,0,2.0000,"[0.0, -0.005928769584193765, -0.03278952426852073, -0.03183776774022505, -0.0637078044541017, -0.08748909626246185, -0.11826318138742813, -0.16526760594798606, -0.1631385620789781, -0.17590293081526692, -0.13901601523084536, -0.15026212083673626, -0.16971714303724372, -0.16707873705774165, -0.16303898878334416, -0.17872491230820425, -0.16474464009144485, -0.1361662004513805, -0.14026304490804872, -0.20241623643257617, -0.20363753788175049, -0.20324554433533992, -0.2108917683143504, -0.23454051316406505, -0.2226633183943888, -0.23168918074124614, -0.2511893030845369, -0.23180728425982342, -0.2470541136661719, -0.2813384522921067, -0.3309075672458369, -0.3703134307439281, -0.33710367397810226, -0.3177000318326693, -0.3520002041038044, -0.3567537514030178, -0.3277279913945033, -0.3408690323974645, -0.36484577575293115, -0.3518549642152822, -0.3875938920086439, -0.4206667131365491, -0.43359216531506733, -0.48380772102764114, -0.4784208357727404, -0.46077823208086527, -0.4767083224217131, -0.4960977555681109, -0.49755019907554815, -0.5124006182196513, -0.5388037093835782, -0.5296872558552147, -0.5276566399637495, -0.5692034508336363, -0.612615501380619, -0.6260251617996756, -0.6208466190364008, -0.6560648720806583, -0.6605081114074182, -0.6756246920316111, -0.6720682629624462, -0.6511965234040729, -0.6830385660895959, -0.7278626213520974, -0.7320691782334707, -0.7420629115883389, -0.7289815342401736, -0.7215039718407923, -0.6753433709613562, -0.6833766046078605, -0.6720920959334984, -0.6677821980993672, -0.7113565604514045, -0.7097427717579913, -0.6981156878666427, -0.7578880535383452, -0.8010255117617066, -0.8205993809674782, -0.837930887268423, -0.8324953419174629, -0.8465435248348503, -0.886840742034791, -0.9013903821669662, -0.8841043781740691, -0.8785475016504071, -0.9084851462913411, -0.8987259127522159, -0.8788655919754256, -0.9190444791039943, -0.9607696235994059, -0.9722634602897923, -0.9644088899835795, -0.9634756802880821, -0.9625163629500594, -0.9963763736965018, -1.0112260566949653, -1.0047011821636922, -1.0451200327670767, -1.0255938166119978, -1.042905608900234, -1.0298842497463414, -1.0253234659024593, -1.0094851490549361, -0.9990294974808295, -1.0129655861943228, -1.018019129890413, -1.0062764191983236, -1.0124392795858734, -0.9823253226260646, -0.9502417991425157, -0.9683899440449153, -0.9773520703805687, -0.9538161401739383, -0.960432508973183, -0.9729823006231223, -0.9942323831200963, -0.9931081589680136, -1.001942764119654, -1.0171345847082702, -1.0226535725586008, -1.0086567463338645, -1.0139128048051318, -1.0574946462823387, -1.0799157181221208, -1.097861400404999, -1.1238342061572768, -1.136347927926737, -1.1594966024971658, -1.1100324348654889, -1.1205647594840809, -1.090602761114645, -1.086237647657487, -1.0869343707314183, -1.1485889569146, -1.152067917470095, -1.1793378231768747, -1.1623301571093798, -1.1465291125163062, -1.1591834954723146, -1.157458172397722, -1.2182655209654663, -1.2454917406660144, -1.2412877176485717, -1.248205319721294, -1.2519016850192481, -1.263873156834843, -1.2731257346169067, -1.2956983524986603, -1.3024245855357994, -1.3060078068125918, -1.3141778073549626, -1.3321462527498413, -1.348496974000128, -1.358979776922238, -1.3720270223636353, -1.379708113102424, -1.3662849561674133, -1.4061605817954503, -1.4108411134753418, -1.4422895260293123, -1.470650043560854, -1.4782628481705051, -1.4826999558499112, -1.5279682218986559, -1.534463694166842, -1.533578184680746, -1.536033221945209, -1.515869441670916, -1.5186704788217302, -1.4979507211130647, -1.5280267102983782, -1.49848825917778, -1.477079631824332, -1.4748078209719393, -1.4673873930319676, -1.4747794182274014, -1.4709147276305943, -1.4475208777323805, -1.4621356150425713, -1.4308687409002356, -1.4584514692785042, -1.4361265292083913, -1.443092185058652, -1.4200758918850742, -1.4177749069007815, -1.427172514058496, -1.4415552118520956, -1.4542559035936466, -1.4346321686690982, -1.4428259070796048, -1.4555269258226062]",True,0.8000,1.0000,0.4000,0.1000,0.2000,0.0100,2.0000,True
14,go,Hit,1,0.1900,"[0.0, 0.008937340223104398, 0.045381684606307586, 0.03879941824755218, 0.0565240915665775, 0.05223454614953876, 0.028310764399485815, 0.05340275341903715, 0.07651887548884226, 0.1013487642853381]",False,0.8000,1.0000,0.4000,0.1000,0.2000,0.0100,2.0000,True
15,go,Hit,1,0.1800,"[0.0, 0.012373537416655946, 0.02474107794387884, 0.0627564673560985, 0.07194603194017254, 0.09790034432057308, 0.07455569153870853, 0.09820360694182692, 0.12898270847737697]",False,0.8000,1.0000,0.4000,0.1000,0.2000,0.0100,2.0000,True
16,nogo,Correct Rejection,0,2.0000,"[0.0, -0.009020464062984016, -0.05674176886733111, -0.05950907264532302, -0.07184647042411499, -0.0801388738543534, -0.11732134583363157, -0.12042822060235431, -0.13176484159898333, -0.1532307137540964, -0.16366699577491078, -0.15519425924863572, -0.17241310198081403, -0.14757395665286532, -0.14600002639516194, -0.15947934999554006, -0.1925248100900573, -0.1980732077361, -0.21113712620026814, -0.20516603341807285, -0.2030943790151239, -0.2238656255412029, -0.19418062425475907, -0.20940155097198682, -0.22741826457998154, -0.23426843567417857, -0.2504380217692092, -0.2389308751385322, -0.24265125672143908, -0.267840442251715, -0.27456663821885346, -0.29646138082209444, -0.3501799953531693, -0.35425221210225094, -0.38033588546089336, -0.39764757949117047, -0.39716172852103954, -0.40292441054693023, -0.41642848569721197, -0.45029454538020186, -0.4734302308635208, -0.4891415548968569, -0.5066735529288047, -0.5202942716947142, -0.5253380036726957, -0.5334124195293577, -0.5302182402525744, -0.5684708031467062, -0.5925523631548919, -0.6046277233834697, -0.6062634254654632, -0.6328765317659344, -0.664925895436924, -0.6452272117827755, -0.6312667707480246, -0.6420959290652828, -0.6775470392453049, -0.6551962193900996, -0.6325934715218953, -0.6397965465593337, -0.6587670052722703, -0.6614278465705525, -0.6853812452515786, -0.7126115182357495, -0.7321771017224763, -0.7426070756482098, -0.7644828145971486, -0.800269853610646, -0.8175644775351616, -0.8150271107245024, -0.8228491525055831, -0.8117084756986829, -0.796983745922308, -0.7995015755985836, -0.7905004921284282, -0.781870912681476, -0.8153429330469215, -0.8294837561733516, -0.8209633907688612, -0.8386701827061606, -0.8275959488101559, -0.850235858851183, -0.8576669742562398, -0.8994260911338514, -0.9310722397548308, -0.9369591396064648, -0.9622298110578518, -0.9584054891199447, -0.9660169488802511, -0.9882176213703734, -1.007589461627567, -0.9954814175150861, -1.0057866750743751, -1.0247657076824799, -1.0178123296711103, -1.0264582240861158, -1.0102341717021097, -0.9966322312429976, -0.9831798793401809, -0.9691666632571554, -0.943837557020372, -0.9827131557972691, -0.9867709917959506, -0.9791018179074243, -1.0220992531151527, -1.014994852138158, -1.0297000409575712, -1.0649215303225654, -1.0635595729081515, -1.0663657158734479, -1.0577169178050385, -1.0552400352763456, -1.0339617361851443, -1.0312208330444605, -1.0645184867156758, -1.0460136061179532, -1.0243239068938084, -1.020788327965474, -1.0041900464776625, -1.0244769081527354, -1.0264891642243985, -1.0723384631351112, -1.0450545401307814, -1.0579411874070095, -1.0999589204166365, -1.1193506133723043, -1.1229752843582879, -1.0967450998921777, -1.098928212481876, -1.1246785492970572, -1.1248588696919675, -1.1458508106629504, -1.1594046274596, -1.1983623386324525, -1.2287711478113879, -1.2579455442363625, -1.275387818732363, -1.2640965032728848, -1.2697150650911821, -1.2895382984174548, -1.3061323722382454, -1.337005657231563, -1.3590794970896605, -1.3799913981734142, -1.3665708264337695, -1.3808987694171653, -1.3655849897873318, -1.380265657154856, -1.3932222220270036, -1.4148596452325177, -1.4123407259453071, -1.404597700441987, -1.3867125168491001, -1.3598288385601918, -1.3560959018450558, -1.3153615019576275, -1.3151063862582721, -1.34941224297991, -1.3319736816238499, -1.3381328707367497, -1.374688314153112, -1.372521925478866, -1.342925209043142, -1.3739501820321884, -1.3950650373489129, -1.4070636456719299, -1.4208258639359594, -1.4576249108333732, -1.4479919353567259, -1.4481181039756252, -1.491804937429476, -1.4943137910147613, -1.4983248676663528, -1.530954689885208, -1.5086179443234076, -1.54677392907346, -1.5413564269427225, -1.5519070475302867, -1.5562800704290558, -1.563944531156349, -1.5987768333128731, -1.6307827663574317, -1.6672954470645693, -1.691238704360721, -1.6648899655701688, -1.6749302788597697, -1.6901850069998117, -1.6628454538847073, -1.6770730595676484, -1.7073170494170855, -1.7094055999188427]",True,0.8000,1.0000,0.4000,0.1000,0.2000,0.0100,2.0000,True
17,go,Hit,1,0.2800,"[0.0, 0.03844546153095945, -0.009597377562344585, -0.02024062643891708, -0.03871720818122238, -0.025692407249864473, -0.02384555792470975, -0.01634261285386283, -0.01719239114052523, -0.03718785486980809, -0.02754730727602081, -0.007973389283911704, -0.0018641271802318244, 0.0045313714282875185, 0.03153031148192905, 0.04575416443632109, 0.0774059140166471, 0.09207000368604447, 0.11126977082354922]",False,0.8000,1.0000,0.4000,0.1000,0.2000,0.0100,2.0000,True
18,nogo,Correct Rejection,0,2.0000,"[0.0, -0.04704361238113441, -0.059375430610977054, -0.03847094516327208, -0.02813491878043045, -0.0449681486973323, -0.034351483972598525, -0.029192816457135985, -0.034415090823737685, -0.06974432944724052, -0.07119713116311113, -0.05865910254082785, -0.05786924556241027, -0.10292893398919482, -0.12312042029290374, -0.15657540068248058, -0.1880004995839571, -0.18502141575588404, -0.1588370061437179, -0.16793673138806242, -0.1552214305545912, -0.19324106035126642, -0.21582250140091372, -0.219816080636826, -0.20939901693107377, -0.1636409032635237, -0.1544757213497407, -0.14698338924362372, -0.1463740773644152, -0.1359335090928917, -0.16792343453555986, -0.17741167370934807, -0.16011958780155292, -0.17739657707739792, -0.16345797047477517, -0.19131866823317137, -0.20321168015994634, -0.1922056035667147, -0.21535062680068606, -0.23327142430906714, -0.2743175524357233, -0.28743240255865316, -0.28604148102592636, -0.2762533561917213, -0.3163522431331363, -0.30006017575519695, -0.3173781299977999, -0.30357627957329564, -0.29076134303583834, -0.3347327593016488, -0.35180831188398054, -0.3615392611256345, -0.3988815989680486, -0.40901360084327243, -0.4253220161347401, -0.42742328797286105, -0.43287880595141337, -0.43261140626368044, -0.4315512054441736, -0.4514421409319853, -0.4392024554495766, -0.4494950539569375, -0.4877318487095089, -0.5091763536945271, -0.5148130605536414, -0.5126508651977938, -0.509675857248517, -0.5013020098752867, -0.5137200075541368, -0.5116691264811946, -0.5223064257722112, -0.5215058898107993, -0.5407412787313326, -0.5770374745195903, -0.5631894122469376, -0.535544179532688, -0.5318179292327564, -0.5434879634547691, -0.5649003743217477, -0.5761132593288384, -0.5808625098915263, -0.5815405861468937, -0.5902058149239277, -0.5885765748001899, -0.5786905835523605, -0.5972649126720251, -0.6144784684436907, -0.6126214835942202, -0.6297440889574702, -0.6329733815997014, -0.6678020114452355, -0.6364389200121979, -0.6643978431468603, -0.6598835216018758, -0.6806824139632071, -0.6966898466154434, -0.7013583716262272, -0.7419879143529573, -0.7512602680857431, -0.751939257736987, -0.7734588057483701, -0.7876831667132854, -0.7998485848752044, -0.825283277446329, -0.8038759951296295, -0.7795699270723433, -0.7894104461972572, -0.813149200311925, -0.8251122479092011, -0.8079670956156965, -0.8368961488538798, -0.8384186923564116, -0.8740638160984949, -0.8730171330141386, -0.8471420539001773, -0.8575710574968056, -0.8848025410611056, -0.894497988134296, -0.901201935596279, -0.8761149258486868, -0.9247775983018962, -0.9141350382693642, -0.917508723277132, -0.9513139753228355, -0.9882554876979439, -0.9737802692008546, -1.0029697632493635, -1.0687534485438512, -1.064769411099832, -1.0726779432435751, -1.0899135689580985, -1.118579428385875, -1.116855895755415, -1.1439919943294767, -1.1507935654506227, -1.164684493414617, -1.1868092327061828, -1.156544892741382, -1.167118669597438, -1.1682680033759434, -1.146377881845843, -1.1342665367667484, -1.1133138122175266, -1.1370459010548264, -1.1874405744171488, -1.179301158845516, -1.1891096608083846, -1.1708399280136574, -1.2090823643365374, -1.2523262782530489, -1.2652066724276714, -1.2662666440416737, -1.2544400415194497, -1.2711591280237944, -1.2908245420396218, -1.2781330411866518, -1.2844935731084643, -1.2897250447526825, -1.3406651555860938, -1.3330995120772884, -1.3331685452760926, -1.3738114215811212, -1.3503818513349977, -1.3618724910690658, -1.3818854034518142, -1.4098471682718186, -1.4382728767169135, -1.4271575062646413, -1.3906639422086549, -1.3717123446457957, -1.4081339952455392, -1.4343687575541015, -1.45030376478757, -1.460318781899748, -1.4584241582017354, -1.4833333757501002, -1.4686710503113658, -1.4964515683686717, -1.4965101219061272, -1.4806185328853103, -1.4701945247072254, -1.4918402578331387, -1.5073261620248164, -1.5149436880010994, -1.4913526586156103, -1.5242359178035807, -1.5177612329922634, -1.5275068531406517, -1.5271267043523378, -1.5541062366821097, -1.5516378888492999]",True,0.8000,1.0000,0.4000,0.1000,0.2000,0.0100,2.0000,True
19,nogo,Correct Rejection,0,2.0000,"[0.0, -0.0023102883957160127, -0.015274044988633521, -0.03579337524371134, -0.05314303318905663, -0.02803936606208931, -0.04035615323048494, -0.053775732907267296, -0.068014094639783, -0.04715587664789113, -0.04297243014191646, -0.06900979344856847, -0.09627365383392436, -0.0983797497978323, -0.12821212336579826, -0.15374166373266954, -0.1670623073277131, -0.14875855460913828, -0.13072260641582015, -0.11797125739154928, -0.14063779874523194, -0.16957523114130593, -0.18546829279593738, -0.14560163027676942, -0.15120197631885365, -0.14649048584593224, -0.18329881755445987, -0.19127187827848746, -0.18039939340549346, -0.16815441065659614, -0.18210824343117293, -0.2008228650786304, -0.23363820945470756, -0.26581919701184575, -0.26793661222253407, -0.27468893135421296, -0.2647880908312698, -0.2768395110830269, -0.26482739805204847, -0.25012765381719293, -0.2552742930275796, -0.24349709607845105, -0.23733498796359637, -0.2366431699174013, -0.2208739411026438, -0.23378992923514758, -0.2621066838733512, -0.2743922130805925, -0.28860335724975883, -0.2956029796894058, -0.2927401538197753, -0.3026515273700968, -0.27165448638119594, -0.255453910849462, -0.27337851052207174, -0.2792159237531085, -0.3005916755319031, -0.33048740133218724, -0.31885152657363297, -0.3250758529751891, -0.35175746592303986, -0.3888405073475646, -0.406647759618485, -0.38884648951576123, -0.41351484537801164, -0.4242324940133742, -0.428698505296258, -0.4548814435983264, -0.45662625581421995, -0.4470985131710171, -0.4464632458245182, -0.4619367412363714, -0.47742340461751753, -0.48030217414963056, -0.5070850766829597, -0.5494690184717659, -0.5371537057885297, -0.5113084231245183, -0.5517660240072404, -0.5672459771842536, -0.5516419476337127, -0.561273628359234, -0.5856516989790541, -0.5921016345710507, -0.5973952126509088, -0.597596569627043, -0.6354219792049676, -0.6667530957453671, -0.6760047200333426, -0.6560536115054314, -0.6746520160785259, -0.6896262390157094, -0.719200596253833, -0.7280266368671089, -0.7437115219178212, -0.7414456486815838, -0.740831779468199, -0.7494480742699943, -0.742909386933964, -0.7158000499030825, -0.6890280333268451, -0.6740321647302835, -0.6888661420272358, -0.7441635775357023, -0.7364960483962252, -0.7825009816081586, -0.7586838139017577, -0.7869793660635045, -0.8124417434483904, -0.8291637973579239, -0.8434278359921206, -0.8519249841757337, -0.860675429293672, -0.8542363128450537, -0.8798882396292987, -0.8639481110230743, -0.857753683008728, -0.8844791498496526, -0.89969223847305, -0.9118789777647949, -0.9494912968715904, -0.9414607440651066, -0.983205870723129, -0.9669763852482494, -0.9484878656433383, -0.9437692925759052, -0.9918353556700177, -1.0006668449217206, -1.019641553865038, -1.0307469170439731, -1.0327449050366686, -1.0403018911011388, -1.0376620713195825, -1.080935731780207, -1.0896196810841572, -1.1184242139315286, -1.1203676737120087, -1.1231512057420652, -1.1180283715551729, -1.1360785445134756, -1.1491848714952133, -1.161377940093778, -1.161931496811732, -1.1514832188982778, -1.1635971876224958, -1.1326164711549345, -1.1633734966333766, -1.1687412135985782, -1.1792202408077888, -1.2231789189794897, -1.218411290091135, -1.2240484014741968, -1.259226506010214, -1.2805626248480224, -1.2585723939272988, -1.2639248116199981, -1.2748553883089442, -1.2874353293949685, -1.3010817746045653, -1.2435213164755723, -1.2239686788781978, -1.2468969383859778, -1.2748378949393473, -1.274721142957347, -1.2749143128851252, -1.279579524631631, -1.2744460848107306, -1.2759586977257737, -1.273612193277327, -1.2931094815593491, -1.316375674945582, -1.3187730755807217, -1.3085633989150407, -1.3160188901997938, -1.3121929782381003, -1.3109293013095822, -1.322590467921511, -1.330291169703002, -1.3419199816753762, -1.377181406309828, -1.3926710883912279, -1.4126761614594407, -1.4174899209045888, -1.4077990501081052, -1.3798175704875408, -1.3883991769224455, -1.4297485028868047, -1.430241652189147, -1.4292228936246294, -1.4237923211504502, -1.4387605920354718]",True,0.8000,1.0000,0.4000,0.1000,0.2000,0.0100,2.0000,True
20,go,Hit,1,0.2100,"[0.0, -0.014960782334875772, -0.01009125307364215, -0.041809583186797346, -0.05859165417981495, -0.051707238623621345, -0.027224648615789833, 0.010130700645880529, 0.05079904615151047, 0.07145186865867632, 0.09886353211548617, 0.13393335236245849]",False,0.8000,1.0000,0.4000,0.1000,0.2000,0.0100,2.0000,True
21,go,Hit,1,0.1900,"[0.0, -0.013727932781891054, 0.011346366829288253, 0.04320981796732327, 0.06697417808429659, 0.09078024329839897, 0.09244896663470424, 0.09287550059032669, 0.09676318506151552, 0.13089345466478933]",False,0.8000,1.0000,0.4000,0.1000,0.2000,0.0100,2.0000,True
22,go,Hit,1,0.1800,"[0.0, -0.0007922826889983497, -0.0009478912781495964, 0.03980512882476071, 0.015352886350074549, 0.03474295868576585, 0.0648594512199805, 0.07595959670653499, 0.11481953338441216]",False,0.8000,1.0000,0.4000,0.1000,0.2000,0.0100,2.0000,True
23,go,Hit,1,0.3900,"[0.0, -0.0038477114678063615, 0.025164519803838964, 0.034291168277657734, 0.027393336103805094, 0.054547605735429425, 0.044446732652922316, 0.06534447645822573, 0.041367837732658605, 0.055045079574449124, 0.01484485293454571, 0.016690423146237445, 0.02657716738783902, 0.00843131167861053, 0.04256655065843089, 0.01622757225868099, 0.02881370410073737, 0.04751191793975788, 0.04024944450827764, 0.034086850308590703, 0.03964827007187292, 0.05720096266947848, 0.07461591340079088, 0.04567260367966907, 0.08421495161773546, 0.08178201831848407, 0.07774239488300448, 0.08880122260241327, 0.08897486616964359, 0.1121938978536243]",False,0.8000,1.0000,0.4000,0.1000,0.2000,0.0100,2.0000,True
24,nogo,Correct Rejection,0,2.0000,"[0.0, -0.04074018981108077, -0.05377305644258245, -0.05875804596419973, -0.05288150716933981, -0.06198794912609971, -0.015986746314882096, -0.04021740616690618, -0.03768382885905188, -0.033491176460576776, -0.03134718219327109, -0.06432154141967178, -0.0739004828549131, -0.09862775109548458, -0.11434419096968679, -0.09789485152576935, -0.09466348216991713, -0.12288376147333886, -0.16869474871223475, -0.18274544351727198, -0.22130426733483982, -0.18288377540066272, -0.2273909522646922, -0.19166119063602632, -0.1893683248745928, -0.22340860072232377, -0.2348076954780347, -0.24878934425754037, -0.23754912187970684, -0.2644572109330756, -0.300194298040073, -0.27033681689637357, -0.2680085145638134, -0.2799349968210414, -0.28259342806117665, -0.2729278680986039, -0.31319619961716894, -0.33827254587717237, -0.34981208511764883, -0.33465715683800623, -0.36031824912916766, -0.3828130957924744, -0.40232096692582114, -0.3815440552261624, -0.4082999782500188, -0.451254218040547, -0.4726667028718841, -0.4765780585376278, -0.5468918564290136, -0.5630763963598878, -0.5935889408199099, -0.5755658511207424, -0.6139276509496646, -0.5786643749277861, -0.5800754835278997, -0.6305662770976397, -0.6073122903442902, -0.6235153390029577, -0.6671497387169384, -0.6791527355703134, -0.678317920613129, -0.6824251521226647, -0.6828242051748775, -0.6576301092329391, -0.6619638927194934, -0.6722891070798858, -0.6631008325958619, -0.6651997098592847, -0.639990648870533, -0.6282908589060645, -0.6509607282065604, -0.661111771347713, -0.6908075044994615, -0.6747025122511374, -0.6861439146478562, -0.6976215475913345, -0.7135656256591725, -0.7135741728107743, -0.7320685721453587, -0.7232397486855355, -0.7209452957558085, -0.7606031154820652, -0.7941671773781671, -0.815296908010473, -0.8403410201158262, -0.8200293660695155, -0.8418033523140602, -0.8487312668850384, -0.8451335953707683, -0.8177775284258775, -0.8234314685619353, -0.8263197055707363, -0.8531505539074077, -0.8532633310454985, -0.8736280974994177, -0.9032021203451657, -0.9051024494770253, -0.8928857337079347, -0.9023945761684525, -0.8920664408165074, -0.8590132246639767, -0.8579818749924147, -0.8956593153689473, -0.8872640848247716, -0.9404276991451896, -0.9600758999246448, -0.9578576864922135, -0.9674154814025973, -1.0095727192079382, -1.0270036087893286, -1.055506138501713, -1.0482557413208486, -1.0470175367337204, -1.0838598327319515, -1.1297851279840463, -1.1288240247883086, -1.1616079248801616, -1.1296270845042895, -1.1077822901061716, -1.0878273926156716, -1.0724117124010144, -1.0787481842915294, -1.0853578413949714, -1.0934036691428723, -1.112866053289798, -1.1200320204440968, -1.1168389029665307, -1.1323625805154642, -1.1271831949243925, -1.1307287308533616, -1.1533936767703432, -1.1756608628540273, -1.181974092411619, -1.2056698801913783, -1.1955363403347725, -1.1770775310527604, -1.2093475489043555, -1.2134280071128523, -1.2262727271809306, -1.2426664831880554, -1.2111334938028084, -1.1761424129854106, -1.2387750183504658, -1.236356101364359, -1.2365756571086455, -1.2456824179406698, -1.2877341948092407, -1.30737524600885, -1.3384061990620333, -1.325720005698145, -1.329042697153653, -1.3623481932745183, -1.3496236022828612, -1.3871867347239306, -1.4087299041832606, -1.43375223929456, -1.4341880478796083, -1.4817693503319076, -1.4831897772511005, -1.5141135985561083, -1.5071045137465175, -1.5088304883389836, -1.5263076571464929, -1.53917086114602, -1.5389883220682934, -1.5497403249671413, -1.5572219383096098, -1.5404362377370968, -1.5419434004327441, -1.5755263593137692, -1.597602590529338, -1.6235808758569303, -1.6171184289165057, -1.6073089750625587, -1.6041022001652658, -1.6132138916080478, -1.6199813268934478, -1.6049986965378202, -1.6263971248588638, -1.6704282811268205, -1.7025594572072915, -1.688414135273134, -1.7013885102951285, -1.6971729316163826, -1.6708133733124508, -1.678862909644158, -1.6905894682919989, -1.687863915488085, -1.6593386296277057, -1.6835043886616283, -1.6853994800278338]",True,0.8000,1.0000,0.4000,0.1000,0.2000,0.0100,2.0000,True
25,go,Hit,1,0.2200,"[0.0, 0.015629556600032832, 0.00264157786559081, -0.01100709882116625, 0.005134720392878413, 0.01727586280147293, 0.04976412763271702, 0.06477798100932873, 0.059729927017390896, 0.059152352688138427, 0.08867481220068084, 0.09002629270478289, 0.10655741102423934]",False,0.8000,1.0000,0.4000,0.1000,0.2000,0.0100,2.0000,True
26,go,Hit,1,0.1500,"[0.0, 0.0034679215381034877, 0.020330989098960105, 0.035717527997108436, 0.08819652834065524, 0.10754919690296053]",False,0.8000,1.0000,0.4000,0.1000,0.2000,0.0100,2.0000,True
27,go,Hit,1,0.3600,"[0.0, -0.004891061482971946, -0.0002212988432372491, -0.0045780476464517255, 0.019651835216501018, 0.015264983346762998, 0.03415115506930321, 0.034220772878777554, 0.02600975300191554, 0.023344550645574023, 0.029571979737531222, 0.054207081164096574, 0.07401766144025025, 0.054708406392059664, 0.05747232814289576, 0.05215322414197174, 0.060369353897217606, 0.044741696121839, 0.051151337917245854, 0.08008426968248747, 0.04609831080134967, 0.04966507868612671, 0.07371216782905082, 0.07722134219269508, 0.09093725166606526, 0.06415902701171883, 0.12576315674371144]",False,0.8000,1.0000,0.4000,0.1000,0.2000,0.0100,2.0000,True
28,go,Hit,1,0.3200,"[0.0, 0.0028760582190842316, -0.004153124769187341, -0.028716497552160394, -0.02312429069677522, -0.01223376891112789, -0.0024334104812863376, 0.017707053150447422, 0.029975506351637177, 0.031056773093497535, 0.057038490327328384, 0.08339178382104212, 0.09230937438186396, 0.07258479101263557, 0.0639557543154225, 0.049748811270843615, 0.04650941144121666, 0.02595053648412579, 0.06977631832993264, 0.05907837691440923, 0.05420167109581493, 0.06725695561324538, 0.10801833179662879]",False,0.8000,1.0000,0.4000,0.1000,0.2000,0.0100,2.0000,True
29,nogo,Correct Rejection,0,2.0000,"[0.0, 0.027436215786953697, -1.3632005857810298e-05, 0.020283198639929414, 0.03480160178689773, -0.022845918742226246, -0.04437737219946301, -0.0455812744428908, -0.04318407522661564, -0.06582212077206381, -0.06749982340594471, -0.09893707711082046, -0.1239778338983319, -0.12904528540591573, -0.15704607659748449, -0.1551704199228459, -0.14928444212672282, -0.13364477301961414, -0.16364715191040155, -0.1654767008226918, -0.1875407764513875, -0.18147701662822627, -0.21809551414189968, -0.19634951233055978, -0.22384449728534475, -0.2617172937371765, -0.2878317627452505, -0.25799258669119834, -0.24683662650468607, -0.2741845446699804, -0.2649406490053234, -0.26509849292395693, -0.2631037207098396, -0.2688334035765861, -0.27382815736357635, -0.27686546194021694, -0.3087110028985466, -0.3132169059033009, -0.305238611426059, -0.3142399751785973, -0.32874468969498166, -0.31913203767367426, -0.3320447397711479, -0.3201283314030512, -0.34037477302740493, -0.3635072781816234, -0.3844841347227886, -0.3578521039101453, -0.34997711904813095, -0.40155297951812685, -0.42145112481419533, -0.4382750855466348, -0.43077059457664457, -0.4446034048367437, -0.43472784850141194, -0.4904381679428086, -0.510758418279714, -0.5450306913619258, -0.5569358133766443, -0.5362203882778618, -0.5099827461518623, -0.4929494403278343, -0.5152609307111795, -0.5561396187489247, -0.5952216226473709, -0.568278085288747, -0.5726637693564213, -0.5554405788613563, -0.5747069026900643, -0.5825335050930555, -0.551333668450239, -0.5259778461499569, -0.5398478548369076, -0.5256193919518868, -0.5136943490801706, -0.5664926575219726, -0.5469845643790296, -0.5455876323681065, -0.5487764836382998, -0.5624686432000435, -0.6048100775525523, -0.5998254054272693, -0.5890055250830429, -0.5900420054149292, -0.5775063549713833, -0.5866981020287463, -0.5886972714088451, -0.571162040607963, -0.5845848993990852, -0.6048215531042931, -0.6092643007488768, -0.5979950052842277, -0.5795149031033998, -0.5869426699025637, -0.6213776894288238, -0.5891726401438074, -0.5601577949125731, -0.5746119879391892, -0.5701368316995274, -0.5792223988349036, -0.5944632980528313, -0.6147499910720272, -0.614322318039142, -0.6241379549157992, -0.6553237311937076, -0.6458321468186535, -0.6548789312891374, -0.6764171116946374, -0.7089074787935034, -0.7731618646580821, -0.7520674978869993, -0.7578933809239646, -0.7952818588545585, -0.7864198337870681, -0.7971294991167013, -0.7940282160527701, -0.7830820386631163, -0.8360064643490025, -0.853854346099743, -0.8908167806138781, -0.9144491650330802, -0.9124456843561657, -0.8950608386496304, -0.8909982573686961, -0.9280040149067807, -0.9124980426198035, -0.9485212602241659, -1.0018279089023998, -1.02257727589599, -1.0620509069561834, -1.084793898363114, -1.095804077616051, -1.085905786938205, -1.0956321709590915, -1.104666583390452, -1.13354749747256, -1.1198135936822937, -1.1297650992528763, -1.1458339168299025, -1.169376287993918, -1.1719011034391646, -1.1538879807844733, -1.188471585444412, -1.2210135376816145, -1.23095093305994, -1.2231414482943972, -1.2239471488195592, -1.2171342022746858, -1.2150370476417645, -1.2094717256238976, -1.2032090457381532, -1.1898071966808401, -1.1952963900145521, -1.199629085326822, -1.1940235655605793, -1.1547875947774913, -1.1588398863625247, -1.1714327734317491, -1.1777092833879417, -1.1690735907250993, -1.170749174476816, -1.1560297469289416, -1.1355610850352518, -1.1096275950168863, -1.1223873694660853, -1.141908304127438, -1.130995215090452, -1.1474073743113538, -1.156197150965572, -1.1465616189398329, -1.1580104587670264, -1.1901308593551339, -1.206144199518067, -1.1927282224279645, -1.2278678828645833, -1.2361971482036935, -1.2519282764874942, -1.241663919887989, -1.251586186540351, -1.2695952032306557, -1.2813740126563218, -1.2726074963364227, -1.266772659944378, -1.2791804687241703, -1.2981003584264372, -1.2684536020662662, -1.2661355138230364, -1.2065081453617055, -1.1618761311197172, -1.10136235302531, -1.109499608993621]",True,0.8000,1.0000,0.4000,0.1000,0.2000,0.0100,2.0000,True
30,go,Hit,1,0.3300,"[0.0, -0.009715253132794945, -0.010555647107475873, 0.020456570888634038, -0.012723291904229033, -0.05036940366460743, -0.009276645718278714, -0.0007224297086391405, -0.003252409979436233, 0.012714231734408754, 0.008636834415944027, 0.0224729932246027, 0.02227894322668056, 0.026804211029676714, 0.039307429962370306, 0.020594875031667813, 0.01802697936202803, 0.025553227957053483, 0.032305331318535004, 0.03195574824146178, 0.05035191825150068, 0.047995371845591626, 0.09943752722813555, 0.12249304595430563]",False,0.8000,1.0000,0.4000,0.1000,0.2000,0.0100,2.0000,True
31,nogo,Correct Rejection,0,2.0000,"[0.0, -0.002618778157901798, -0.011073480926524982, -0.002948827259655836, -0.03903685057962271, -0.011530766591519019, -0.01574287240416674, -0.018877987454003927, -0.008071431837795125, 0.014066192727933847, 0.0006434960438884835, -0.003127990296507807, -0.012460863860240961, -0.011678640927214837, -0.021275147797117623, -0.04709923426553984, -0.07563340594195589, -0.11524695105655983, -0.1256870867314077, -0.13410522009118903, -0.15079653896494258, -0.18320363281878432, -0.20480863502150093, -0.2276770940944551, -0.2356680690191008, -0.1980167098134311, -0.22784664261756432, -0.26960701158170075, -0.27459353991898594, -0.2966636974055279, -0.3166145471480635, -0.3221826440285974, -0.3209196837236177, -0.3515594736161, -0.34353824103975106, -0.35602890097021855, -0.37142138543499953, -0.3932460726614966, -0.398441223682294, -0.4127902358792779, -0.38628078654792586, -0.39714263398659466, -0.39379757023169326, -0.39324394873312135, -0.3944391697199904, -0.42663150435138125, -0.44903608297032005, -0.46644098797638167, -0.4844552701887064, -0.5252046106710911, -0.5104266638120657, -0.5403244043204868, -0.5703942910389995, -0.5722920715680099, -0.5839115036289461, -0.5792379716674715, -0.6300282217429803, -0.6251172788477947, -0.6076227937157918, -0.6242722708733056, -0.641166609637514, -0.6531470782678005, -0.6810821985775252, -0.662770035763235, -0.6573320881633359, -0.657155146264972, -0.7150431371508267, -0.7285599877769415, -0.7457804783400181, -0.7538758406423756, -0.748446752680612, -0.7531693096367201, -0.7607404765804325, -0.7689486802833845, -0.76945061039908, -0.7809597928062402, -0.7663262817772454, -0.7423516692197344, -0.7468079760665316, -0.7390075880247721, -0.7787795000310845, -0.8096773593477994, -0.8375082953820142, -0.8163033972427043, -0.8317117895637467, -0.8095201792196682, -0.7962143889853508, -0.8197954816266881, -0.8433106863289249, -0.8576327389173536, -0.8810058960333089, -0.8881281939237264, -0.9066363692204185, -0.9275145495754757, -0.9260988692716362, -0.958421314287102, -0.9953976084245123, -1.0028899207998232, -0.9986623398806965, -0.9811036335719688, -1.0081169148136324, -0.9933897656757452, -1.0241586381796652, -1.0492751561204037, -1.068601526803332, -1.0933643309727472, -1.0986514786173756, -1.1152609313853863, -1.1103529198149076, -1.1172842038799575, -1.1147227889104405, -1.1216772274322266, -1.1393324508230918, -1.1506759041529524, -1.154115858074058, -1.1685653283395678, -1.1881264006430312, -1.2262820612261178, -1.2428387561322185, -1.242760654209001, -1.2556782142284681, -1.2732670401372406, -1.282098853153993, -1.273270023425045, -1.280893984627395, -1.3088360581057203, -1.304724440291696, -1.339926935266968, -1.357583999073892, -1.3472744870985256, -1.3635155609746368, -1.3531399605001608, -1.3840460472387999, -1.4014203199225268, -1.4364192360924144, -1.4352537366962537, -1.4304817551129476, -1.4537476736475132, -1.447236517419457, -1.476293211368861, -1.4790148040239746, -1.4654500223905988, -1.4372767502115145, -1.4795897272360055, -1.4613073399156273, -1.4910539738804616, -1.513155498982592, -1.555869461001856, -1.5618497084319134, -1.5577387210009395, -1.5626885389393552, -1.5673801292019125, -1.546624960772833, -1.5622732226753069, -1.5408710947957895, -1.565289514899996, -1.597386321639154, -1.5879460842245832, -1.5903495099507872, -1.623647773488291, -1.6264887479176018, -1.5938754455251665, -1.5965012967918326, -1.596696426167638, -1.6241116009591345, -1.622146171395572, -1.6279137376377282, -1.6400832965470613, -1.6443632289664507, -1.6763411934429735, -1.683087759845422, -1.7246044262739169, -1.765955790507564, -1.7824068184662891, -1.7705205664357242, -1.7881147400389026, -1.7886045318764838, -1.7964574688962196, -1.7611669553684028, -1.757778771723335, -1.7833525641108827, -1.754287759428928, -1.7697088412266007, -1.780473405352707, -1.791882158671174, -1.7944516702227358, -1.810387353079615, -1.8157924532522236, -1.8077653433093392, -1.8589635458242781, -1.8714574242778288]",True,0.8000,1.0000,0.4000,0.1000,0.2000,0.0100,2.0000,True
32,go,Hit,1,0.2300,"[0.0, -0.039748654403713626, -0.016865764986381655, -0.00671365013339595, -0.017322012041964034, 0.00023780049801890024, -0.021398367546527998, -0.009805519148230524, 0.010897334515454965, 0.01030967319754299, 0.04749499875828678, 0.07858505922865763, 0.08102510531726904, 0.13163966201657198]",False,0.8000,1.0000,0.4000,0.1000,0.2000,0.0100,2.0000,True
33,go,Hit,1,0.1400,"[0.0, 0.037448222544229116, 0.05578633904307745, 0.08308320833433433, 0.10255400631434058]",False,0.8000,1.0000,0.4000,0.1000,0.2000,0.0100,2.0000,True
34,go,Hit,1,0.1900,"[0.0, -0.01095966233277687, -0.013394716763968209, -0.0005356900143416755, 0.0236778054193113, 0.017469048237452656, 0.03353223643067216, 0.06011697505866738, 0.09950998328731508, 0.11126743114244877]",False,0.8000,1.0000,0.4000,0.1000,0.2000,0.0100,2.0000,True
35,nogo,Correct Rejection,0,2.0000,"[0.0, -0.01523067057046839, -0.0198963733689954, -0.027625624695660014, -0.04865210938429862, -0.08487217976048485, -0.06983489185510243, -0.06821330396071913, -0.0726519859753003, -0.08542042417948491, -0.07584322210365688, -0.07895904821866685, -0.06361369255224193, -0.0853027535193343, -0.089829164987891, -0.07707587161606352, -0.08111955561554494, -0.08332619611682608, -0.07769335144232511, -0.10934932873040175, -0.1326117429214393, -0.17215683178822339, -0.16047125500664647, -0.17009304826339036, -0.14150838825445528, -0.14016204860000225, -0.16630162416607006, -0.1724687611219523, -0.20548205505525452, -0.21725445371807917, -0.20759358355970203, -0.18747441129107031, -0.19012167652747483, -0.20721604736830337, -0.20604288443083799, -0.24986638286984053, -0.25729908275551455, -0.2734461094009485, -0.30094396866127476, -0.30322355596817446, -0.31815334221134334, -0.33786219228981884, -0.34367562257722795, -0.33680862247334215, -0.32213178366184725, -0.31632591954814326, -0.3397480720536396, -0.3339254078369515, -0.33329074340537357, -0.32593796469299147, -0.3739516679548957, -0.41034402282751364, -0.43861873786715233, -0.4605840511525571, -0.4666369233447777, -0.45829374459415556, -0.49698814225534504, -0.5190751192357501, -0.5174685530129455, -0.51896397798002, -0.5306810747356704, -0.5271665801163028, -0.556195491094172, -0.531737293885488, -0.5182733961713802, -0.4911525260709076, -0.4700648771670931, -0.5018097131430346, -0.49203254295610466, -0.50176987419636, -0.49682469333998813, -0.5092622484323952, -0.5167291021971108, -0.5616904525333105, -0.5455450290520588, -0.5534076714978876, -0.5381875255940501, -0.5604055265628877, -0.5892582244959453, -0.627378107914114, -0.638716769388142, -0.6680345038942903, -0.7045366946975015, -0.731069817906603, -0.7191831416773099, -0.738929644754902, -0.7354015512558028, -0.7670916171070514, -0.7621328236367033, -0.7853259617121867, -0.7973344073281912, -0.8179650791270211, -0.8514658131752898, -0.8638656243496885, -0.852046498250952, -0.8566660074771427, -0.8850404117315891, -0.8864377852862579, -0.9114922186054903, -0.9163963246579176, -0.9444524750939264, -0.9620189156902087, -0.970564813467038, -0.9914665987092873, -0.9983585060136709, -1.0228008960240993, -1.0301713075358194, -1.075212207242964, -1.088425826317679, -1.114030054678411, -1.1043109070238408, -1.0865838034231001, -1.1044760018998199, -1.0955236925047664, -1.1230358544669057, -1.1078378074523096, -1.123639057293505, -1.1500813867114836, -1.1941439395589915, -1.2207411422637855, -1.2154747030165625, -1.2061644907511937, -1.179318513703039, -1.200562606805215, -1.1988483701433263, -1.2080916767641428, -1.202156143795519, -1.2144442265828452, -1.228057952014218, -1.2484188787812012, -1.2876477233474037, -1.2750407302503302, -1.2616642091812775, -1.2702416210316558, -1.2613129589007976, -1.287362470702291, -1.3121064045335042, -1.3157014103800424, -1.3440385341384729, -1.3456803192512918, -1.3591334207177417, -1.3550999465847067, -1.3467151794497436, -1.3295757828249775, -1.3317049577686157, -1.3572093005654517, -1.3685928551409645, -1.3747163621702114, -1.3792061660816277, -1.4312350813038979, -1.4489640022104773, -1.455726171044975, -1.4790316124575966, -1.5238546968819293, -1.494740190947945, -1.5332439523717694, -1.5581203972585136, -1.5505851745798167, -1.5553943900096816, -1.5866386902465037, -1.597913225132795, -1.6139692926819142, -1.6221711845921898, -1.6157940156592372, -1.594696973502158, -1.6038671040909316, -1.6117000609341996, -1.6312070447444094, -1.6203947968226247, -1.626382752592049, -1.630718293155268, -1.6575600836938609, -1.6846750220217777, -1.686674824874709, -1.694384429862416, -1.67543914965843, -1.6923330870972897, -1.6905695414625646, -1.680185269056955, -1.6964134935866602, -1.7018719777508542, -1.6840921132490625, -1.703321070550349, -1.7189739836098226, -1.74252390896938, -1.7127913606864693, -1.7525866789778963, -1.8150017490292791, -1.8521917649469277, -1.8547414108313507, -1.8682080444456477]",True,0.8000,1.0000,0.4000,0.1000,0.2000,0.0100,2.0000,True
36,go,Hit,1,0.2400,"[0.0, 0.04891466389330825, 0.042942458770121254, 0.04143372207451962, 0.038192731760284516, 0.011037780035044721, 0.05594208649182743, 0.054842554546689126, 0.07210543404323529, 0.04767585151346252, 0.03182447060477615, 0.03107392830679813, 0.038815829550663095, 0.0680798110931619, 0.10518213020881736]",False,0.8000,1.0000,0.4000,0.1000,0.2000,0.0100,2.0000,True
37,go,Hit,1,0.1500,"[0.0, 0.0010084720534593496, 0.028323540655446858, 0.04941758580608041, 0.09332171994631372, 0.11413472699596233]",False,0.8000,1.0000,0.4000,0.1000,0.2000,0.0100,2.0000,True
38,go,Hit,1,0.1900,"[0.0, 0.018760413397199117, 0.018995573956624153, 0.029132510163894326, 0.027312572677732058, 0.042885390030315544, 0.06453068875706928, 0.09597537813258201, 0.08875287994205935, 0.1100676515210365]",False,0.8000,1.0000,0.4000,0.1000,0.2000,0.0100,2.0000,True
39,nogo,Correct Rejection,0,2.0000,"[0.0, -0.009158619699448227, -0.014181919464044117, -0.036760008521910734, -0.03563728373243997, -0.034099400052986985, -0.07687400784757151, -0.06049260433608411, -0.1033891883458613, -0.1156705412679858, -0.08307752498767812, -0.09241323952617633, -0.12707578846936468, -0.15458406387487555, -0.20916855098474874, -0.2170481080958034, -0.2304984051120345, -0.23389893034063905, -0.2488142195355967, -0.24824301298537338, -0.2562559578235045, -0.25225419430148227, -0.244926900549547, -0.267547430128134, -0.3114603292544703, -0.3438219621033781, -0.3527871612866751, -0.3235363257982951, -0.3299470103397231, -0.33906861389058446, -0.3370104620605912, -0.3309373701043869, -0.3643484500900984, -0.363654295930731, -0.36188446931468843, -0.37932780988523346, -0.3762690421738891, -0.3813601977089886, -0.38650843433261173, -0.4269687118489997, -0.41547929549236184, -0.4271798500457427, -0.44800564135841575, -0.46052275391508907, -0.4469617143894581, -0.47785315065496614, -0.47099417768944185, -0.49410580543524, -0.5375188653527605, -0.5581997921889157, -0.5367116625952116, -0.5574414454122547, -0.5564047876520045, -0.5712319529143447, -0.5822604650833407, -0.5736940482613828, -0.5699091634133054, -0.5693314539552528, -0.6196486932881278, -0.6171500249121422, -0.6510665355414516, -0.6711177095144166, -0.7097651117596431, -0.7285837740365544, -0.7153634636844289, -0.7274392053588353, -0.7322488712627132, -0.753887973890794, -0.7284768099967409, -0.7311880352877549, -0.7439005287215269, -0.732944555064603, -0.7411474538342349, -0.7556683529487941, -0.7525236426263623, -0.7295476106886881, -0.7028098060305212, -0.6958264251100101, -0.7162262983373443, -0.7296400953339476, -0.7579187763824906, -0.7613206230013152, -0.7880996809211398, -0.7990641999453959, -0.8209620379241073, -0.8380465841310283, -0.8633858208103905, -0.8681964196404451, -0.881294632380436, -0.900392448657546, -0.894827593496079, -0.8991671935466263, -0.8854563321251638, -0.8965643277282033, -0.9007401340272497, -0.88196140864306, -0.8778062425016314, -0.8858341518824262, -0.904590647944516, -0.9067382181187169, -0.9237796603479312, -0.9476314903872372, -0.9744363518262805, -0.9714970774934717, -1.0078498170057875, -1.0288768037651066, -1.080349830954063, -1.1116173565479335, -1.1138937002679747, -1.150319057175693, -1.1260412453144595, -1.1365573585856337, -1.142486665855335, -1.1223462046820285, -1.0970084790008954, -1.0754202725685846, -1.0868083534085486, -1.087495348348873, -1.0960595487972147, -1.0988912967022686, -1.143348447108363, -1.130243161868416, -1.1090913937884428, -1.1317147839085964, -1.1192898091090855, -1.1631450482874235, -1.1609501980085921, -1.200034540767536, -1.2465701555584492, -1.2643881459469035, -1.231670166186127, -1.227404460063646, -1.2458809480326343, -1.2344345547601132, -1.256428843564531, -1.2479233508053436, -1.2602086530223893, -1.2640778577357445, -1.2852453823900367, -1.2741766860978212, -1.2892649424926226, -1.2813680465250994, -1.282145035839349, -1.2783601677027046, -1.2563363975650894, -1.268568706225613, -1.2319229680723076, -1.2362282720185118, -1.2706624917065328, -1.3141090670619073, -1.3102763345653863, -1.297729758146102, -1.2816603340135724, -1.2831384451464323, -1.3023050692799114, -1.2876269696233469, -1.2956037175597397, -1.2990151670282473, -1.309153816938604, -1.2898352341788435, -1.2925776864654221, -1.2912723171554932, -1.289755905592925, -1.3201237373705195, -1.3207398554612766, -1.3231425677255189, -1.3249096093017234, -1.3387547367334651, -1.339532357087952, -1.356010147324821, -1.3443844376936784, -1.3732288310175318, -1.4088216971950636, -1.4157165933623026, -1.429228703268914, -1.4307094131018412, -1.4540902621432679, -1.4777079340748214, -1.4937305193293857, -1.50273900096562, -1.4679207670366599, -1.478422384003236, -1.492091237369085, -1.4974865132948862, -1.4960249770171368, -1.5159606170127558, -1.5128369827524693, -1.5104487515781881, -1.5308750923100034, -1.552324329587519, -1.5909491702049816]",True,0.8000,1.0000,0.4000,0.1000,0.2000,0.0100,2.0000,True
40,go,Hit,1,0.1300,"[0.0, 0.012816699932489727, 0.05918336960836078, 0.10149049502473828]",False,0.8000,1.0000,0.4000,0.1000,0.2000,0.0100,2.0000,True
41,go,Hit,1,0.1900,"[0.0, 0.004605323512602094, 0.0038747001921024, 0.013768563429325786, 0.029830356884265927, 0.08789685864230234, 0.070849966290667, 0.09983780045223403, 0.0994704141388778, 0.12063610247940909]",False,0.8000,1.0000,0.4000,0.1000,0.2000,0.0100,2.0000,True
42,go,Hit,1,0.2800,"[0.0, -0.02866496357602305, -0.02584433120494903, -0.05227366557107471, -0.02827849624484259, -0.02109005688419946, -0.009372061750320685, 0.027813208728600446, 0.00729288164668461, 0.0127723839772305, 0.028107784933537834, 0.02936196176791513, 0.07195877604913069, 0.05289067056862726, 0.062399861090242655, 0.07263705642641449, 0.09832288475819265, 0.09584724281181113, 0.12399365325599905]",False,0.8000,1.0000,0.4000,0.1000,0.2000,0.0100,2.0000,True
43,go,Hit,1,0.1900,"[0.0, 0.020857555913018615, 0.01889258132019244, 0.06532100859952207, 0.03426840150285089, 0.0642935832222342, 0.04982280870423056, 0.06777568304618525, 0.09398535124246477, 0.1272222789124281]",False,0.8000,1.0000,0.4000,0.1000,0.2000,0.0100,2.0000,True
44,go,Hit,1,0.1700,"[0.0, 0.02819527647504267, -0.0030531601519792687, 0.023058176091198136, 0.03167058208400639, 0.04308644863262964, 0.0732782192388438, 0.1058695364183576]",False,0.8000,1.0000,0.4000,0.1000,0.2000,0.0100,2.0000,True
45,go,Hit,1,0.3000,"[0.0, -0.020288713696817805, 0.011459417307805933, 0.02003194270062584, 0.017936151045820824, 0.037453948309290545, 0.05594962067666132, 0.0585161703312297, 0.09583237454414359, 0.07611906443086378, 0.02983305669209281, 0.0366400683855407, 0.06819834150977191, 0.04993271048118668, 0.022569634518488542, 0.0351884302823578, 0.0325716499090278, 0.06253953751653737, 0.0861772691480393, 0.08508653714722461, 0.13127938001066813]",False,0.8000,1.0000,0.4000,0.1000,0.2000,0.0100,2.0000,True
46,go,Hit,1,0.2100,"[0.0, -0.00689160491795851, -0.016129120362680962, 0.01227607564344299, -0.00584375629288084, 0.010013102895492534, 0.03407658945670801, 0.03177100065544631, 0.052423389287675065, 0.04646242890073163, 0.09972314186220221, 0.10708948232686408]",False,0.8000,1.0000,0.4000,0.1000,0.2000,0.0100,2.0000,True
47,nogo,Correct Rejection,0,2.0000,"[0.0, -0.02716770940132098, -0.029337762012802446, -0.04998292449536208, -0.03884549760147191, -0.021333818029907952, -0.056362498999472765, -0.07456231402631844, -0.06755852857399518, -0.06754517481519538, -0.06050978709685852, -0.09209110891883739, -0.1141107070606154, -0.10649972452353446, -0.12179077181707107, -0.12930396855501172, -0.15669042270044403, -0.15381193262880175, -0.146142983186813, -0.14030627245527785, -0.14195637038972897, -0.13900046388914292, -0.1476024798527344, -0.16083782603473362, -0.17626683166684054, -0.16512450878554089, -0.20539852271095937, -0.20471075886867052, -0.19950596997743886, -0.24341631703243732, -0.24399055281355325, -0.21557502961650987, -0.2067533313252623, -0.23326190639549035, -0.2247071987875197, -0.22328722570982812, -0.23447478914942535, -0.24759759192362962, -0.2588418642033055, -0.2593429285168479, -0.27010924375462414, -0.28866686771512445, -0.27600907392812585, -0.2913386988760404, -0.2843486268542704, -0.29305397015656603, -0.2959168435875013, -0.29540431602904704, -0.2977824490720232, -0.32755343481815413, -0.3099025352411942, -0.29237040323422514, -0.3016193393450722, -0.34480155583459654, -0.37177431323457805, -0.37644408602743346, -0.3947394420121457, -0.3738922368092362, -0.42035017979886014, -0.45992847159093697, -0.49819534051995057, -0.5199754294221809, -0.5438133663623352, -0.5503318686149677, -0.5452521042025673, -0.5622823247333879, -0.5555995816428617, -0.5625055465125034, -0.5774101162559704, -0.6121485519890131, -0.6394584250406675, -0.6340776652934276, -0.6533943460740997, -0.6716675101869682, -0.6813271101159538, -0.7250977479937889, -0.7554448044173553, -0.7830309984247034, -0.7956819789297912, -0.8466373133584676, -0.8543558238377605, -0.8780348031876362, -0.8833720760572766, -0.9059783015326519, -0.9314058319000879, -0.9392435402901462, -0.9471223805800874, -0.9858289459571933, -1.0039112298890773, -1.0400396431415462, -1.035125952168509, -1.047253903908856, -1.0551527449935105, -1.0625626673280395, -1.0622848905742859, -1.0557440575165977, -1.068599126011353, -1.0970172613189872, -1.0987854463314044, -1.093945341943097, -1.0700900838053231, -1.073679201250049, -1.1108306056631225, -1.1436597765181018, -1.1382563608596261, -1.1719593852761823, -1.206064077320133, -1.2427356602242197, -1.2636667507250554, -1.282517311480703, -1.3126522502498992, -1.3239020425733792, -1.3606777353438473, -1.358818750000211, -1.35884635154413, -1.3783870449247653, -1.3996869079096432, -1.381746938736362, -1.3795712381316183, -1.4015664180777003, -1.4154858055734365, -1.3947073980758584, -1.3576132629912236, -1.3913654489653253, -1.4136756766336118, -1.4629683131794107, -1.4660019037013419, -1.4720058985864424, -1.4860281578754528, -1.4766119939432893, -1.4758101562458372, -1.5043000075019743, -1.4742888504311347, -1.4775505909045956, -1.5091956306303536, -1.5135282224791768, -1.52332058605558, -1.5203494969523033, -1.5091515439728689, -1.5085658011297662, -1.4846123011983174, -1.5410122299050244, -1.570010410069953, -1.5784953085015359, -1.6223765030754465, -1.6098298623069076, -1.62196263530013, -1.6028924707705527, -1.6379636287432089, -1.6519174780268848, -1.6695250202083758, -1.6714188900366858, -1.694924627158891, -1.6989413770854014, -1.6941584654849065, -1.7071947944538426, -1.6759587495400075, -1.6937995994945747, -1.6990838096442693, -1.712267900540641, -1.7350345420013285, -1.7329088578810428, -1.7236913323116416, -1.7272653689354662, -1.7905351500327167, -1.782883203315346, -1.8231238403684193, -1.8521456322680176, -1.8950232187517682, -1.911528753422284, -1.9337923023419938, -1.9085630997123735, -1.884460975258282, -1.9135571395073423, -1.9417890680290115, -1.9045793783069307, -1.8863432896092602, -1.9304092800817334, -1.9513993504330038, -1.9768199365420591, -1.971960168763193, -1.9869861177949888, -2.021826131581948, -2.005248597180082, -2.0417813111494665, -2.0531221237947537, -2.069224083592185, -2.0802565285119043, -2.1031156434416274, -2.134922939383411, -2.112955166581862]",True,0.8000,1.0000,0.4000,0.1000,0.2000,0.0100,2.0000,True
48,nogo,Correct Rejection,0,2.0000,"[0.0, -0.012359946849570397, -0.03876852196400403, -0.047396607069229886, -0.06096153413586891, -0.06609801385690194, -0.08962010817895813, -0.09300869289395086, -0.11339388290653048, -0.1267368932702229, -0.13634838013779008, -0.1431706105066011, -0.16611751840657957, -0.19479778725403424, -0.17826516036185944, -0.18953720159701942, -0.20664242836886018, -0.20406907116813294, -0.19967904671423367, -0.2073152462902595, -0.20901924118547333, -0.25963154285344625, -0.2501763695767401, -0.2720681887796947, -0.2502811001672664, -0.2388366997515391, -0.25671796072799613, -0.30117517210325295, -0.2998192450855366, -0.306355381342843, -0.35321453120967583, -0.32903292903446285, -0.3479532346456515, -0.322970160438759, -0.333138573763855, -0.33278058653640497, -0.3202515663250928, -0.34045393827841114, -0.37064884777060547, -0.41059487911622145, -0.43000330982852036, -0.46764617717890156, -0.44224395167858804, -0.467314924947266, -0.48298944981737224, -0.47129744545061897, -0.4869099483095944, -0.4857613701148017, -0.5377274737431171, -0.5487055173913009, -0.5359620892018696, -0.5357607599339255, -0.5641455980951865, -0.5457633982247159, -0.5445672003344769, -0.5728680931630588, -0.5826271504689946, -0.5997448823372898, -0.5959335642316552, -0.6114951861899613, -0.6343031436114005, -0.6495654635851597, -0.6217442976030486, -0.6060556555352484, -0.6123570253427316, -0.577886742158252, -0.5785201359470505, -0.6046118782929093, -0.6717454362220229, -0.6502614083816258, -0.6461775209456267, -0.6799856147428587, -0.6415960782145944, -0.6773418963784159, -0.6680242419354936, -0.6801168080004832, -0.6621985927768302, -0.6581629739167225, -0.6890916257645018, -0.7110965325053991, -0.7149884418501306, -0.6870910904280818, -0.698644650003575, -0.7092176002702169, -0.7233887865451117, -0.7539423514210034, -0.7265919739539104, -0.7017357465437993, -0.717174016762582, -0.7380997918375941, -0.7365006901074255, -0.7731341104230454, -0.7344140180056409, -0.7601104905561933, -0.762985751387923, -0.7918807501487727, -0.8030614319491103, -0.8198698159313651, -0.8554330265184236, -0.8651621922151987, -0.8541095088954375, -0.8634510109726702, -0.8432891554914103, -0.8502445074538385, -0.8521414110324164, -0.8809331338232761, -0.913091629959456, -0.9298942245012639, -0.9369497369375014, -0.9327853635838734, -0.9401848755049799, -0.955392234536468, -0.9868467560006917, -1.0054554236041462, -0.9967058491030713, -1.0070031777411301, -0.9896968636697366, -1.0200935500721002, -1.0442289830937832, -1.0549774065511595, -1.0633851462169093, -1.094905148545385, -1.135009302664279, -1.141458481617813, -1.1755343575728023, -1.2054000584826428, -1.2368413192534176, -1.2491799862275328, -1.2604308866215566, -1.291729095341921, -1.2866239180436345, -1.3078094688437458, -1.298969424393136, -1.326079763135324, -1.3488533062600652, -1.3353748667389755, -1.340190089738647, -1.3352441445712921, -1.3008340415443758, -1.3133929401453757, -1.3343772120830697, -1.3518424007408334, -1.3732891717750462, -1.339578009797618, -1.3517836924016897, -1.3716959680565384, -1.3713385890538523, -1.3844453523270341, -1.3944386807174556, -1.3866347293578238, -1.4081835136180054, -1.4149761141708617, -1.3947454523380665, -1.3793391404476996, -1.3846203310554865, -1.3892836717432655, -1.365439779419009, -1.3464201953935029, -1.3615321141712482, -1.3782572957847703, -1.363680186095577, -1.3667105837525844, -1.396354475074786, -1.3829511142586075, -1.3785019195851784, -1.3780180635855324, -1.429695350055955, -1.4508581702918983, -1.467442373063292, -1.486777218974579, -1.4886035834138793, -1.5018436497606595, -1.5280024951902147, -1.5497141144190674, -1.5466141603574686, -1.5461671234460426, -1.5581529574439823, -1.5808384357225629, -1.5844426815236639, -1.6381764758514406, -1.6261500080133588, -1.6189965265833048, -1.6325065024392509, -1.609701966023892, -1.562593622738107, -1.517947237535958, -1.5093086034984677, -1.5352076423536691, -1.5464366464235562, -1.5818716302225921, -1.5532637305243573]",True,0.8000,1.0000,0.4000,0.1000,0.2000,0.0100,2.0000,True
49,go,Hit,1,0.2600,"[0.0, -0.022990542470812465, -0.02377571726855168, -0.01747361403850515, -0.013731720445438798, 0.016540300137011417, 0.0383208958609434, 0.056837655169403534, 0.0175681639016493, 0.03216931037835009, 0.07536056066016986, 0.07486381493600028, 0.0832373397688935, 0.06847102860584584, 0.07885933342714008, 0.08085949313065381, 0.1128665171101943]",False,0.8000,1.0000,0.4000,0.1000,0.2000,0.0100,2.0000,True
50,go,Hit,1,0.3300,"[0.0, 0.004028849638041301, 0.005245388860140813, -0.017598616853024635, -0.02143623007449438, -0.006303849595186142, 0.05940254588595204, 0.09153646944236754, 0.08490623234775017, 0.07743722123177196, 0.08153797710868112, 0.05978771724035725, 0.06268201681365132, 0.08811032641151983, 0.06150781563792782, 0.07718308725997093, 0.04143939276093659, 0.07042177520243631, 0.05778909376049425, 0.07470383862732051, 0.06128075355825746, 0.09898497222370625, 0.09339385275286934, 0.11435357197610548]",False,0.8000,1.0000,0.4000,0.1000,0.2000,0.0100,2.0000,True
51,go,Hit,1,0.1800,"[0.0, 0.0024226690668874926, 0.036611005723219424, 0.06076448536431625, 0.07364445963464347, 0.07379890189313648, 0.06093541756781083, 0.07182387526331373, 0.11450649069595709]",False,0.8000,1.0000,0.4000,0.1000,0.2000,0.0100,2.0000,True
52,go,Hit,1,0.3600,"[0.0, -0.0063247498958195775, -0.002571734300415243, -0.03496253835499958, -0.036676362064429154, -0.03247786583003072, -0.029785507568418038, -0.04709191140934775, -0.04415673681278979, 0.004587816152551695, -0.005666947610894119, 0.0052462879963970435, 0.02598603872236414, 0.051505710525536125, 0.04989033745999195, 0.026870701637852094, 0.0400650586415825, 0.04129920396427118, 0.04359467130383335, 0.06450868815406424, 0.05171493734102754, 0.07716120399293275, 0.08853686509405627, 0.07420285851506342, 0.09734194446995216, 0.08413187451845333, 0.11402035196801695]",False,0.8000,1.0000,0.4000,0.1000,0.2000,0.0100,2.0000,True
53,go,Hit,1,0.4000,"[0.0, 0.018736665836842765, 0.02819852533749665, 0.04054187908731437, 0.05343017318113902, 0.0341235387769771, 0.05893499404587153, 0.05534047604910754, 0.01733229474686855, 9.52673492847847e-06, -0.0015767389071451102, 0.018587596029782265, 0.04170755363664609, 0.04043967363749398, 0.00764322796480546, -0.0037576965092859585, 0.008438510619710562, 0.008722091227637046, 0.004047101474813632, 0.050754973663827634, 0.04334532395186137, 0.05629957968565873, 0.059867712676526984, 0.036846450077162377, 0.04546848897067851, 0.04980987767569896, 0.04473680638049017, 0.056483957477031235, 0.055578248004814895, 0.09953501126276931, 0.10757816190698247]",False,0.8000,1.0000,0.4000,0.1000,0.2000,0.0100,2.0000,True
54,go,Hit,1,0.1900,"[0.0, 0.00797447482885276, 0.012195794931880197, 0.019726054367584372, 0.04888559999093216, 0.04816619731521084, 0.04836458578386961, 0.0632017163773622, 0.09206477090923462, 0.10943487667619396]",False,0.8000,1.0000,0.4000,0.1000,0.2000,0.0100,2.0000,True
55,go,Hit,1,0.2000,"[0.0, 0.04794860032637519, 0.0694094752684582, 0.08008009750472303, 0.07080254923014948, 0.05856812213537417, 0.0706633025564447, 0.06375749747367228, 0.08685386684121754, 0.0824514752488821, 0.14104996339968193]",False,0.8000,1.0000,0.4000,0.1000,0.2000,0.0100,2.0000,True
56,go,Hit,1,0.2700,"[0.0, -0.0017434962376415026, 0.01587521592809945, -0.028731895972953322, -0.04117967852144241, -0.025910680407473654, -0.02879404252217052, -0.024013069960379954, 0.0018336865443160273, 0.04062590916776436, 0.04858117433806272, 0.01876066601034551, 0.03594606806908827, 0.012928406935341325, 0.02966651922947215, 0.0618770801712253, 0.08576320974937658, 0.10639024915638312]",False,0.8000,1.0000,0.4000,0.1000,0.2000,0.0100,2.0000,True
57,go,Hit,1,0.7100,"[0.0, -0.02157605805125933, 0.013029398611925699, 0.03712774321758547, 0.06000330235398067, 0.07149949581333737, 0.0692342008356632, 0.05836751883265501, 0.04724331650017752, 0.04432385344508023, 0.07370963124319867, 0.05863701135358501, 0.05290203646663294, 0.04287939549404616, 0.02357980251184582, 0.001513155308060947, -0.0023060349071274723, -0.02094957793809321, -0.02473031821980972, -0.010518342538643075, 0.003498987147108031, -0.02340356610341627, -0.021536088326516357, -0.0282900719378111, -0.02451491728238181, -0.032622423645591744, -0.06705008541093072, -0.08342718762048265, -0.10688641338327395, -0.1300047214282494, -0.13504763809474593, -0.1356890368814685, -0.12537137011649244, -0.10430919961613666, -0.1037242445142402, -0.05373781212069368, -0.02171399914097079, 0.0009199991938452258, 0.006245230483248065, -0.0014288914955306762, 0.007161006465194553, 0.00825546494152328, 0.042776798774874225, -0.022806667574060108, -0.023498525954938128, -0.004324189432776217, 0.025835748687627395, 0.02082056956337671, 0.03434069120091205, 0.06457585740925864, 0.061527331544838575, 0.0411743657629956, 0.05574747559154762, 0.04803550976896485, 0.06500654149141324, 0.040524829243111786, 0.05797029863678316, 0.05156243542044532, 0.061533102691071186, 0.0705349514345059, 0.07511063986101042, 0.11145953135791022]",False,0.8000,1.0000,0.4000,0.1000,0.2000,0.0100,2.0000,True
58,go,Hit,1,0.1700,"[0.0, 0.0070001738091205485, 0.0437148141599471, 0.038424925907276086, 0.05218759529337463, 0.07579589150645566, 0.0834260618258549, 0.1288449411200733]",False,0.8000,1.0000,0.4000,0.1000,0.2000,0.0100,2.0000,True
59,go,Hit,1,0.2600,"[0.0, -0.0125819391698332, -0.03046277710553051, -0.013436202196069374, 0.007194693701360711, 0.003791938512518781, -0.022526707254743497, -0.007517834850481863, 0.015872056943557204, 0.0472803568880578, 0.05212793554438433, 0.05208813690315997, 0.06619143275699439, 0.07561655020348601, 0.056649903939935076, 0.05533607857795693, 0.10298085574908075]",False,0.8000,1.0000,0.4000,0.1000,0.2000,0.0100,2.0000,True
60,go,Hit,1,0.3600,"[0.0, 0.007271476706597945, 0.02322623191048599, 0.012433763875226888, 0.006014549645626092, -0.005593708554004914, -0.020392486061968543, -0.011755404240198782, 0.00710853521091994, 0.03549783082521256, 0.00394157252425259, 0.016063625708457277, 0.018294653306576217, -0.003356419346816533, 0.04970914452545533, 0.06548561142524859, 0.05962825749468632, 0.07548136267737862, 0.08001740600838995, 0.06914451017109838, 0.08245129669858514, 0.09218714535932614, 0.05157696941881647, 0.08988395648525313, 0.09993426625481391, 0.09539657595531074, 0.11354295620717289]",False,0.8000,1.0000,0.4000,0.1000,0.2000,0.0100,2.0000,True
61,nogo,Correct Rejection,0,2.0000,"[0.0, 0.009088669332150683, -0.03490755130394665, -0.015937258708370993, -0.0070083907704191, -0.01724552397887559, 0.015994353886881037, 0.004404195962600728, -0.005241354434334782, -0.010015032588123984, -0.016882774522744864, -0.035657451500529715, -0.05265159033496643, -0.06284530905393264, -0.08775393961646412, -0.09220614761622933, -0.11897672891315819, -0.10633070502201741, -0.08576269958148433, -0.09841332393660948, -0.0631157042558003, -0.0837674305246428, -0.109271071189064, -0.12745807984474028, -0.1295614830041705, -0.14578060621840291, -0.151314677604946, -0.18818231579775718, -0.19584680858689435, -0.23390051217028537, -0.250974725080578, -0.2732900555146899, -0.26286526729253007, -0.2781635586117798, -0.28469652584007776, -0.2923190605518075, -0.3126254176089692, -0.30695114077052693, -0.33457695778709695, -0.32951891887968204, -0.3454545226740593, -0.36835005742460314, -0.3798228744734557, -0.36864923454434767, -0.37959142386325406, -0.39152578384510067, -0.3547955906848111, -0.34880607654630774, -0.33351066292846515, -0.3263625570367125, -0.336780889241054, -0.35438597659191473, -0.3645998551608201, -0.3595044733930928, -0.3872326026409061, -0.376211085943898, -0.4022383070093174, -0.3939154089604159, -0.41155423162049076, -0.400712027805483, -0.4101841039255437, -0.43524543683017125, -0.4675154348938594, -0.4936622759474049, -0.47373797268528023, -0.4746957814835214, -0.4773900039087306, -0.46290624756694665, -0.4955734854560263, -0.49506985024671607, -0.48166242953920524, -0.47508909753647743, -0.4851213331426767, -0.4861495884258877, -0.48841804995959665, -0.5221195559113091, -0.5442708449139912, -0.5605501155562463, -0.5814981445359431, -0.565553531567969, -0.5834516776738519, -0.5910561599938223, -0.5955132705716744, -0.5831869651470086, -0.5938660733231762, -0.5999675088858258, -0.6209136905633148, -0.6510856324568405, -0.6698301026317238, -0.6472747651973081, -0.6572105278560643, -0.6786985221065432, -0.685375360758694, -0.7012114031987212, -0.7266867089305706, -0.7232427549669961, -0.7459389950347305, -0.8143299679120111, -0.7950264673847446, -0.7809946682778293, -0.7802933020090205, -0.7980375074112243, -0.7791946996958954, -0.766910576455657, -0.780481315260624, -0.7675794716019843, -0.7817765645245061, -0.8037052227524513, -0.8323940037466971, -0.854491235310177, -0.8145912230177944, -0.8234501016680353, -0.8195970069882313, -0.8334362494921613, -0.8233017550816822, -0.8553123885286754, -0.8520506685128681, -0.9102033601831606, -0.92867973556466, -0.9463303177396093, -0.9783700167391467, -0.9975067094560298, -1.044455961534017, -1.0094131016504957, -1.0199627291737736, -1.0265837044042776, -1.0096540707129513, -1.0197217477494145, -1.015447736360716, -1.0042509984146557, -0.9918473775945176, -1.0131366072767092, -1.0154550541838419, -1.0229961597996005, -1.0574748163059913, -1.0900025812780445, -1.1090818218909837, -1.1254741174733514, -1.18560188354052, -1.1905130517537459, -1.20770715169846, -1.2308824505971356, -1.2516803813826023, -1.2643079864483366, -1.1972084687623719, -1.2001688365985215, -1.1893856923784696, -1.2059784496148254, -1.2472396554684055, -1.2289024496628982, -1.200827377839991, -1.2147884447396424, -1.215660165269487, -1.1918464776732445, -1.2189008527570897, -1.247303935740727, -1.2584958146716347, -1.2578651413737754, -1.2660836669726425, -1.2377584934522614, -1.2589903105061087, -1.2792089314389554, -1.2831021249306052, -1.2542012086109542, -1.2454491359914424, -1.2641798561520277, -1.3020774365188412, -1.2773427541941968, -1.311501822050659, -1.3392728417544404, -1.3766920079055083, -1.3742156011080295, -1.4076553157997982, -1.3978100737554968, -1.3900446263966486, -1.4144787833394121, -1.3969634219052198, -1.386841158003652, -1.4022844670132109, -1.4096881083917836, -1.4071879060726826, -1.421690874881098, -1.4010449611911873, -1.394195700706225, -1.3992194038793253, -1.4302486719401548, -1.4617690878416938, -1.4671004807064858, -1.4697915194677353, -1.4808096845427179, -1.4968166898214859]",True,0.8000,1.0000,0.4000,0.1000,0.2000,0.0100,2.0000,True
62,go,Hit,1,0.2500,"[0.0, 0.05656744959638564, 0.042413655055639654, 0.0384410878109459, 0.04973635715016742, 0.0787049264576538, 0.05992584576665248, 0.07056994145659089, 0.09124664851984601, 0.07486605170783311, 0.06395229336550198, 0.07752964481102384, 0.07919202548772344, 0.07880624829324068, 0.097126466215305, 0.10327589088889401]",False,0.8000,1.0000,0.4000,0.1000,0.2000,0.0100,2.0000,True
63,go,Hit,1,0.3500,"[0.0, -0.02964795970180604, -0.030624067038423644, -0.01091094135749493, 0.0024371024717451603, 0.005334899214208056, 0.015050122079469062, 0.02253345105155116, 0.030932108002036503, 0.03904302623501354, 0.016897960087838896, 0.026976401511273916, 0.04464641574131078, 0.03740473035781279, 0.027735608949662618, 0.04535769541925651, 0.03400501565424219, 0.04721930799280939, 0.042319446136162446, 0.06911942250531064, 0.07649300147747322, 0.06118889461440649, 0.05963857711503637, 0.052700475563653794, 0.08430217013031027, 0.11164155102224774]",False,0.8000,1.0000,0.4000,0.1000,0.2000,0.0100,2.0000,True
64,go,Hit,1,0.2100,"[0.0, 0.01887937988203666, 0.02267098547260011, 0.024687943353928668, 0.015714456360744818, 0.029070411073742024, 0.03706435467515328, 0.06568198705514366, 0.06791623609076533, 0.09054734582926051, 0.08198469185001149, 0.10896791421482258]",False,0.8000,1.0000,0.4000,0.1000,0.2000,0.0100,2.0000,True
65,go,Hit,1,0.4800,"[0.0, -0.01561801987633648, -0.030120845086756942, -0.019193587476301836, -0.057189062335930935, -0.017859571856971963, -0.014950685223932721, -0.005890812940479674, -0.0056511116424540755, 0.0029840973027833962, 0.008815406488517306, 0.009636276332403495, 0.030954203797341096, 0.004935194417082449, 0.04004354131865629, 0.04071142718990127, 0.07347640372086894, 0.05306327932220126, 0.045568593874546606, 0.07329965099506475, 0.07528120906842309, 0.07193468946592982, 0.05404385372082411, 0.04382975935963333, 0.054893877933637855, 0.06457822079399647, 0.06662455538731861, 0.07915321927358766, 0.07004103249323822, 0.06679746767819365, 0.06178004969909419, 0.05978015349088309, 0.03441297326640703, 0.05650530728175468, 0.08197648537777855, 0.0842354439900662, 0.086795720512885, 0.09548946704989843, 0.14866245456348906]",False,0.8000,1.0000,0.4000,0.1000,0.2000,0.0100,2.0000,True
66,go,Hit,1,0.2700,"[0.0, -0.00967558591187299, -0.03330410461653166, -0.0532436326566232, -0.046166203854605174, -0.08267980761656427, -0.07474758631463788, -0.09108329850512517, -0.07128361036307221, -0.04225312865113279, -0.023125155349253797, -0.015275239142568372, -0.0022233051834993755, 0.0260302664381672, 0.03713291140845945, 0.06604923812707199, 0.07064120908801103, 0.10128497716700674]",False,0.8000,1.0000,0.4000,0.1000,0.2000,0.0100,2.0000,True
67,nogo,Correct Rejection,0,2.0000,"[0.0, -0.020404881161739906, -0.032981093401154904, -0.07641887818221191, -0.08859805636116082, -0.07767223674451959, -0.07726784136928301, -0.10182105846702492, -0.10415487218409483, -0.13139129950633022, -0.13989795432146573, -0.12811267784192631, -0.14341777583453696, -0.15360629400046658, -0.15751359064197382, -0.13909573724044536, -0.12836455334977118, -0.1577054950847264, -0.1651752048414794, -0.16687206726679452, -0.20531648431019683, -0.2248557041388723, -0.22169286966158336, -0.24294255220254893, -0.24280495297449547, -0.26090207235324414, -0.2592221884521703, -0.2552224796078561, -0.2785883344366149, -0.2935444189599184, -0.31511472303681287, -0.35867055397772474, -0.34905859535307693, -0.3766724833261483, -0.3856153944230851, -0.3511822461378807, -0.3965944973594608, -0.4031314618831972, -0.4049419126072614, -0.4587541633235159, -0.5081442787201068, -0.5343580503235045, -0.5366528980255604, -0.5723586923099541, -0.62260573927467, -0.5910967423572934, -0.5744289620087065, -0.5625014499195493, -0.555340121189295, -0.5838429358409435, -0.5652743314551111, -0.5691536472196594, -0.5845466752802502, -0.6102309079047293, -0.6222777626031392, -0.6395488219842771, -0.6692109418741904, -0.6513074177409289, -0.641037608340489, -0.6263981642426035, -0.6473111165576413, -0.65986712003651, -0.7085257811653296, -0.7262904146082342, -0.7451278867238617, -0.7402876680965053, -0.7427574012958776, -0.7586986736997483, -0.784966635087312, -0.8133084616801342, -0.8178969784291984, -0.8195879946398771, -0.805578913991171, -0.787196302498776, -0.7925403211969034, -0.7996692888923073, -0.786571845518528, -0.8074817264117673, -0.7834862333619248, -0.7859352892015714, -0.8097943366375594, -0.80373649431935, -0.8181894256833713, -0.8114510839087766, -0.8280890341000154, -0.847106366988315, -0.8365761699992829, -0.8231599735642933, -0.853624635690063, -0.8775324749126738, -0.8601556958415348, -0.859284236897921, -0.8513674663278377, -0.8319918553950928, -0.851057592919107, -0.8965889067010306, -0.9426520161168402, -0.9592088333771048, -0.9735255341296439, -0.9846684132863636, -0.9922446881494292, -0.9667831686343963, -0.9887717033590483, -1.0260150460982627, -1.0221223791799807, -1.034023907092076, -1.0632537380849347, -1.0986027022508007, -1.0928736060539659, -1.0924079935254745, -1.0731016655745729, -1.0912094962347805, -1.0889895400276355, -1.102092326925917, -1.1036057377470398, -1.0974843379395658, -1.0843326484765812, -1.101280015380348, -1.0968187325566283, -1.0927800277645126, -1.1167375409355418, -1.1501037630948725, -1.1333875407940655, -1.1735383235448522, -1.1696096663818507, -1.1809500724339184, -1.147053480561097, -1.16032653717119, -1.1522124528253999, -1.1718792529768631, -1.1794642915428233, -1.2122611432922743, -1.1940000786219058, -1.2173054563038808, -1.2150741929640987, -1.2244649314942828, -1.2733650570528567, -1.3070579838142364, -1.2965249302793733, -1.2973304456097736, -1.3016579946438358, -1.3029429078134573, -1.3230060106749113, -1.309511846759672, -1.3414247302261415, -1.3318305949651112, -1.324865293250315, -1.3440962657611297, -1.3484590371961747, -1.384609545128153, -1.3954541486325247, -1.416092793332333, -1.3864223196355445, -1.369668229199106, -1.365418744946857, -1.4256187492603194, -1.4199441828676795, -1.4162273425703005, -1.4378959479273967, -1.4769344149778192, -1.498119496537313, -1.5161890378686584, -1.4942422788701055, -1.5054803633851053, -1.4860824192170667, -1.5360202103684422, -1.5314679386362338, -1.5486137348165117, -1.5453481173546835, -1.5285591183336005, -1.5112505339869637, -1.5266936215418556, -1.5109287895621701, -1.5200452308197034, -1.5095809816180212, -1.515519382424256, -1.553505791532747, -1.5556462317666213, -1.556899596536943, -1.537741564111261, -1.5360553767359548, -1.5332722395477776, -1.566353598695792, -1.5981098880238804, -1.614793730894593, -1.5850903957335107, -1.632519128654837, -1.6316971065297903, -1.6346725251894365, -1.6691654567110927, -1.6750187784297574]",True,0.8000,1.0000,0.4000,0.1000,0.2000,0.0100,2.0000,True
68,nogo,Correct Rejection,0,2.0000,"[0.0, 0.0077252623889222626, -0.02883706833080556, -0.009059603156634715, -0.012760871992884594, 0.017430323453652967, -0.035314025769596524, -0.05876068241718637, -0.05678346548832686, -0.031634290348022585, -0.08731210746610962, -0.06615006065380255, -0.08537419562751151, -0.10295109199867111, -0.09120397828479648, -0.10595025167437704, -0.11156143785451797, -0.13871479442847046, -0.14919932493256893, -0.1764296592332659, -0.17055911081180586, -0.16923323694752287, -0.19150173354403593, -0.1983108782836229, -0.230837459892173, -0.24458216093643428, -0.26548181988771885, -0.2990314743358493, -0.3173731093619956, -0.31231581165308425, -0.319659277811815, -0.3598611325318404, -0.3727697315415224, -0.3614711532339279, -0.36843019092968177, -0.38338187780649774, -0.37030824372631294, -0.38665600369170045, -0.4039941041911188, -0.3811326250474333, -0.4281723262753723, -0.43288243473587873, -0.43763164865546955, -0.43081737152373567, -0.44366454320348786, -0.4596762886827332, -0.5117122047699091, -0.4923321415935077, -0.44959632573361596, -0.45488705100670723, -0.4757879646045621, -0.49584957757519643, -0.5148663432676579, -0.5580701679546557, -0.5920752749168134, -0.5906404095480312, -0.6221698007766471, -0.6304830710545004, -0.6451275660725873, -0.6561857270658874, -0.6367162306905751, -0.6736262142894903, -0.6824467848024668, -0.6777233133383334, -0.6717780178821657, -0.6736712030600237, -0.697425083564091, -0.6903191086737721, -0.755737260501732, -0.7668273629066386, -0.751954070349991, -0.7521024635089955, -0.745856156200778, -0.7617818427934162, -0.7452500265700511, -0.7837343449089823, -0.7738722542380363, -0.7485979830984577, -0.7481414861551833, -0.7314993903599982, -0.7618072448718952, -0.7690231324492062, -0.7944178906226468, -0.8276658346935526, -0.8573901899552313, -0.8664147137967985, -0.8939077473496563, -0.8783650815720745, -0.9087290729695358, -0.9450785480697381, -0.9445600517148515, -0.9903135812241685, -0.9731557934730228, -0.9602108858243081, -0.9748327034815102, -0.9829911355373188, -1.007433831325311, -0.9989292239027991, -1.0145998142195196, -1.0509840102805066, -1.0794029762481419, -1.1049587238728567, -1.1119620909979768, -1.120457051411112, -1.1155294056882452, -1.1140948541066253, -1.1287592627720118, -1.1534681390919332, -1.1415104051172278, -1.152357861245657, -1.1476273870256803, -1.1559959024250448, -1.1590125987325894, -1.1749014948145302, -1.1691195909324394, -1.1804741501937364, -1.1568805679025032, -1.1623191271237454, -1.1632452265091497, -1.1665416347421738, -1.1947934232364572, -1.223581261215308, -1.2707750333542165, -1.275059510279566, -1.2957096942039001, -1.3009059346635092, -1.343290804521993, -1.3214765384686997, -1.3301218605759535, -1.3303757505150675, -1.34557766301059, -1.3399233676328715, -1.3368086220579964, -1.3719981881971828, -1.4071690208396634, -1.4170787670808476, -1.454174546920938, -1.4807190539849622, -1.4921362614599565, -1.5223659591833982, -1.527884058894502, -1.5591876440716934, -1.581747092698791, -1.621898728730055, -1.6271422452913253, -1.6026746323910848, -1.6018188944236371, -1.6183601773229657, -1.6258155626497814, -1.611177545634785, -1.6366410307601256, -1.6704917294398998, -1.6690081495180256, -1.6591321877719907, -1.6786721595021348, -1.6566353629207087, -1.6789413243455533, -1.6719311238245624, -1.7014729980320042, -1.7295304809198542, -1.7263146463844068, -1.7194097844226364, -1.7350991112777137, -1.7582166269481536, -1.7616334758886043, -1.7530522242490134, -1.775113172212145, -1.774046659329164, -1.794576234742859, -1.7943955344658624, -1.7889378288053632, -1.8047191858943898, -1.8153478492552049, -1.8040884075267514, -1.8172050462522717, -1.8282582991209384, -1.806852077566781, -1.8423467185669746, -1.8466815841289759, -1.8804715090224409, -1.8663191620284414, -1.883799110144045, -1.8945549629382121, -1.9088453778788446, -1.9270629523814642, -1.9523217752343105, -1.9442850151306748, -1.9825804206852176, -1.9937286211650216, -1.9771242788254615, -1.9639149260775408]",True,0.8000,1.0000,0.4000,0.1000,0.2000,0.0100,2.0000,True
69,go,Hit,1,0.1300,"[0.0, 0.031228292449486387, 0.09583209162402448, 0.11622339097868861]",False,0.8000,1.0000,0.4000,0.1000,0.2000,0.0100,2.0000,True
70,nogo,Correct Rejection,0,2.0000,"[0.0, -0.026385539379219725, -0.005165664324715928, -0.013075817077564326, -0.02814158295199387, -0.030287313749326018, -0.04032892477680907, -0.06228895538774156, -0.07028670903879682, -0.05761845932631929, -0.0796783476032527, -0.11285787383956952, -0.09601770262812473, -0.1006198616853141, -0.11467622288699127, -0.12688973358120578, -0.15848834537410042, -0.18016696011308386, -0.16326664472646024, -0.15972410043249197, -0.1773790800719686, -0.15813715615912308, -0.15079797874008352, -0.15598346747963687, -0.17337210782643758, -0.16642264380121718, -0.2014396441996269, -0.2670120519518233, -0.295085428702951, -0.2885548293856012, -0.2747333879435896, -0.3219799573399737, -0.3363666656949496, -0.3437683443218357, -0.36355605642207783, -0.3882605731180888, -0.3749755807144728, -0.3707064872998662, -0.3954301784466533, -0.3963496680856635, -0.3947458466132933, -0.4208581036454107, -0.43218185632580625, -0.4019663635887037, -0.4211624268230943, -0.440631079234835, -0.42219757625549903, -0.4329384414884422, -0.4190280656173752, -0.43022963088280347, -0.45714904185886807, -0.44933177953736514, -0.46397121568575, -0.46582085406780893, -0.4337552226146555, -0.42751766453773693, -0.4486771665343446, -0.4884089421284659, -0.5070434692800073, -0.5096452558588096, -0.5286739120856325, -0.5063795965454951, -0.5309558447887919, -0.5647694349436708, -0.5801036791390977, -0.5752128808885008, -0.5734310057589324, -0.6103814665399884, -0.5971048265528153, -0.6274478004102029, -0.6385557947078537, -0.6717066875241431, -0.6722608146811541, -0.6626573732335149, -0.6634267482376978, -0.6529375097821655, -0.6451558334906109, -0.6698472499207416, -0.6702292005757139, -0.6702419279173453, -0.7175992471915499, -0.7374421085420758, -0.7026625551672152, -0.69293132793637, -0.7331806351067569, -0.7603852937690174, -0.7494917558490478, -0.7434180666354443, -0.7559456974420631, -0.75688619233131, -0.765865358011778, -0.7512143016475201, -0.7648529392209171, -0.7852141514068418, -0.7587950824256628, -0.7879856769663653, -0.7924275195554249, -0.8137350804050291, -0.8115023350522933, -0.8094129724401974, -0.8242747479359579, -0.8428770923605948, -0.8253018334587234, -0.801036501106502, -0.8372321234893728, -0.8403974743784798, -0.8781861545636528, -0.8977687186024713, -0.9041656472942118, -0.9279071344105371, -0.940904546144095, -0.9093685213435727, -0.8994346828616321, -0.8902808843634991, -0.9057878339986157, -0.9082359635667189, -0.9254441812371739, -0.9468395024632349, -0.9364884159938468, -0.9064794496354507, -0.9233904486036729, -0.9263677228184197, -0.9596886778850255, -0.9475683626777388, -0.9568615792218533, -0.9540019547843755, -0.9863465477098334, -0.9998619767183435, -1.012882375860222, -1.036980720689545, -1.0190223960507194, -1.0004376257733385, -1.0266576291669718, -0.9664081193925597, -0.9834118707705949, -1.0094212359771741, -1.0253785646841787, -1.06578405165772, -1.0819536289698979, -1.0873254649561117, -1.117004029481919, -1.1294128639751533, -1.127824231893539, -1.1633389244050256, -1.184585254286229, -1.1972121901240351, -1.1917951652489278, -1.2262835745371858, -1.249483307847801, -1.2908547697372752, -1.274519047195569, -1.2789147218809398, -1.2813951963770005, -1.2651263221503621, -1.2761198358797035, -1.284083293834353, -1.3203123128725611, -1.3363454615581942, -1.3780631462461614, -1.3921408179667512, -1.4318217614889144, -1.4687494186144299, -1.4744614456879908, -1.5049074940641056, -1.4885872753692695, -1.515246247364135, -1.509641624788446, -1.5042732826363427, -1.5183833637086293, -1.5444688728235405, -1.5296948835671964, -1.5237578870690298, -1.5404660952523097, -1.5656837243139483, -1.569836852341311, -1.5846129588956936, -1.6175555834849058, -1.6614024499952544, -1.6551537500133053, -1.63817476863187, -1.6430158264590542, -1.6709059593958768, -1.6692273105923912, -1.6769705033288995, -1.6588331005397723, -1.676087611731136, -1.6786522920287064, -1.697863768615274, -1.6814823062075082, -1.6996112905716654, -1.7197613826321898]",True,0.8000,1.0000,0.4000,0.1000,0.2000,0.0100,2.0000,True
71,nogo,Correct Rejection,0,2.0000,"[0.0, -0.009939132740850678, -0.03172353730168256, -0.041971130795453615, -0.05439416211655678, -0.09074364270608887, -0.11596182864559268, -0.1251091167427773, -0.14719694401891378, -0.17482032589615068, -0.17811649479838815, -0.15799279089515578, -0.17467475474969346, -0.1978232630914406, -0.20700342373313563, -0.18354887521227237, -0.15653829940193387, -0.1586947588115741, -0.1333487032878427, -0.12549768347682552, -0.09724635395496463, -0.11042102432524589, -0.08797757383046062, -0.10373078841192393, -0.10712275681003923, -0.08590526644522435, -0.10795930742820195, -0.1004751043390816, -0.08557322937067384, -0.04455758799681979, -0.08239062670258065, -0.08499493179074526, -0.10330387484014847, -0.17352211297957054, -0.1870380499830102, -0.17110723916444498, -0.176792231863146, -0.15143843582220573, -0.1340181482184562, -0.14106026505966665, -0.16757387375295568, -0.16123414712840245, -0.18630574881543477, -0.20807073638608584, -0.22787749858440995, -0.20651171020627762, -0.20738930779564366, -0.20256067905131314, -0.23755816752059308, -0.22406809422417293, -0.2029221982664565, -0.21402848566826171, -0.24353610159982828, -0.24667767650876404, -0.2675699715877552, -0.28662574353134707, -0.29362227683730413, -0.3032084639452628, -0.27167592773774446, -0.25886663621982703, -0.27730459787611733, -0.263923498018227, -0.24172216510880767, -0.25727301337704667, -0.24313083089681575, -0.2707569210379653, -0.2759201737429579, -0.27886276595553594, -0.2782611632339204, -0.2823599370371947, -0.30429011226795527, -0.32405374437211776, -0.35151987967004, -0.36681018509985985, -0.36746540661488736, -0.3424002085330254, -0.3664169851919366, -0.4191590361395552, -0.4085544488732261, -0.4541548188403386, -0.47303329341406736, -0.4562070896852896, -0.4744841965778466, -0.46042956480427966, -0.468216203186035, -0.45495532132158173, -0.4464622231651094, -0.46126851248549156, -0.4501819169130988, -0.4709598655373081, -0.49540967588225787, -0.49729688411846645, -0.5349225922821244, -0.5412289448418848, -0.5514075750823422, -0.5751775678814136, -0.5531395683130482, -0.5886106253738215, -0.6026462041178415, -0.6331774590698059, -0.6324000892860009, -0.6106354653624975, -0.6366003236947051, -0.6326330506621949, -0.6466131198752161, -0.6897846380837227, -0.6928225214094536, -0.6967776617643503, -0.7057217777709047, -0.7285360526705739, -0.7271169666192226, -0.7527190370906051, -0.771525864690759, -0.7988340365922468, -0.8411270284744943, -0.8271439217190988, -0.8472731617273566, -0.8321560185442004, -0.8375096840440881, -0.8704766920980113, -0.8637978375514637, -0.8752955071503162, -0.8655914963554876, -0.8930949521093292, -0.8500028710576922, -0.8782275835735519, -0.9013054544794067, -0.8748963606179762, -0.9142900115617841, -0.9080789796181674, -0.9182055980218561, -0.9151804715492484, -0.9025622677742805, -0.9176709987725845, -0.9448009194432011, -0.9274082678181956, -0.9542091601451663, -0.9752335168374056, -0.9984918662615316, -1.0160727779606955, -1.0243762632722058, -1.0049986964539996, -0.9642552583211327, -0.9322102188446171, -0.962962974693488, -0.9862605508890261, -1.0335176292412414, -1.028662684579929, -1.0257219819406125, -1.025468259473463, -1.0439697258459497, -1.0564870387203749, -1.039402936138138, -1.034772109410407, -1.0534759552119357, -1.0501043057988593, -1.0936867874819676, -1.104975927351865, -1.1358545429994167, -1.136706833963749, -1.1317019612269685, -1.1227646647456198, -1.1695222567375685, -1.1909634354966343, -1.229222042691897, -1.2453415566940165, -1.2517421343260264, -1.2572789098318995, -1.2589888891793783, -1.2975677394526017, -1.3067889483300357, -1.345757318769533, -1.3923232311180442, -1.4112157366500935, -1.389777173961132, -1.363207435211102, -1.3322589234545785, -1.3476102430834687, -1.3576002061136805, -1.3206921313814002, -1.3396091470544487, -1.346252895356584, -1.3606009213381403, -1.3577054859680233, -1.406047864205554, -1.4080599215424088, -1.4422132425616376, -1.434292791797024, -1.4374089535900907, -1.4258539650767736, -1.4274138945963146]",True,0.8000,1.0000,0.4000,0.1000,0.2000,0.0100,2.0000,True
