trial,stimulus,outcome,choice,rt,trace,timeout,w_s,w_n,threshold_a,t,noise_std_dev,dt,max_time,affect_stress
0,go,Hit,1,0.2200,"[0.0, 0.03294355048655992, 0.0419739722482566, 0.062254320392102186, 0.07859703685425086, 0.07140027906921234, 0.043444890695704515, 0.04778705025991179, 0.04885433365775779, 0.058480147798220965, 0.07798985205656096, 0.07453313310893454, 0.1260597033563862]",False,0.8000,0.6000,0.4000,0.1000,0.2000,0.0100,2.0000,True
1,go,Hit,1,0.1800,"[0.0, -0.04181224887287129, -0.031188113425237092, -0.011502617776689317, 0.03646658896204887, 0.06804711645145342, 0.05966244346951736, 0.08028034868502297, 0.10159232083558697]",False,0.8000,0.6000,0.4000,0.1000,0.2000,0.0100,2.0000,True
2,nogo,Correct Rejection,0,2.0000,"[0.0, -0.05403150713435773, -0.05663214936015516, -0.08148214052071817, -0.06309660187216497, -0.029534187188233356, -0.02292085435228926, -0.0065175477283787, -0.018600772064147487, -0.0315803593653492, -0.043120677487353085, -0.05892497529733866, -0.052423907148316136, -0.05675910848370815, -0.0740808042556572, -0.07951171689424778, -0.09019981053495901, -0.10525444191360316, -0.10967009561048449, -0.15320666729825702, -0.15347826682763777, -0.14428326593017876, -0.14630445529615585, -0.1665921126046879, -0.18897363890874638, -0.19982786134818992, -0.21470652585244737, -0.21744427542943506, -0.24039725841367238, -0.23610461119851447, -0.24370272162583115, -0.2578494674983574, -0.23527173134588317, -0.23263423579409637, -0.26938957792224805, -0.2992507564928693, -0.31107491222281, -0.3417693263684294, -0.3564835026178175, -0.3683479376308603, -0.41720500517302156, -0.4277273924732092, -0.4615304481408914, -0.48621849349275226, -0.5065553000822135, -0.5058110929607953, -0.5443718000365594, -0.5351746943411194, -0.5397710924010674, -0.514033703603197, -0.5021972741751832, -0.4888480714162663, -0.4741105154063732, -0.49266964771152794, -0.5011626207230915, -0.4958930603635125, -0.5227692732990196, -0.521496929158478, -0.4968824989414034, -0.5027250745695351, -0.542323673800948, -0.5462165872296226, -0.5688688646517477, -0.6042979510599727, -0.5716456597378431, -0.561827343340596, -0.5729458057259984, -0.5487265987673444, -0.5776978592651607, -0.5907597097144619, -0.5955944377666564, -0.6169578001578215, -0.6094092774808686, -0.6013224132004674, -0.5899961842291427, -0.6305454319490316, -0.6332559796468517, -0.6378210247633953, -0.6108812051053846, -0.6277784902216018, -0.6708242991184877, -0.6475477092714528, -0.6572168713079086, -0.6591074245054408, -0.6590020742572467, -0.6815435655083032, -0.7002237335771283, -0.7132203444111712, -0.7518750786262456, -0.762331256346318, -0.7595297342625179, -0.7657193971616744, -0.7585037784130464, -0.8004111489412725, -0.7857947981787344, -0.7833540968917668, -0.7824403273317136, -0.8044393897506222, -0.8056912472086637, -0.8066546895956618, -0.8262577308392901, -0.8670130744013829, -0.8936104324045815, -0.8994393418038044, -0.9036148170468239, -0.8844244232711677, -0.8806344854556907, -0.8587669198362509, -0.9106532256240848, -0.9197159402596908, -0.9133248747771371, -0.9193359321092145, -0.9492889552953121, -0.9429586758434868, -0.922510810843463, -0.9620191609088934, -0.9663951782973742, -0.9617861810609706, -1.0030829591398664, -1.0184701703805135, -1.0257195180587197, -1.0306887246730132, -1.0109118469233875, -1.078077215058415, -1.066808402586188, -1.0503095447078294, -1.0804992932267548, -1.0713877151123616, -1.0812192067470934, -1.0563213964509175, -1.0847758239770697, -1.0892509693462127, -1.112802723614273, -1.1085392315784972, -1.11213803594877, -1.1179708421388213, -1.1178352523302093, -1.1535977833326583, -1.154061008292451, -1.1429022263289694, -1.14890532428165, -1.1504606622865818, -1.1619356640529046, -1.1772880542471995, -1.1820447002745296, -1.1873054817057267, -1.1849882156038127, -1.1937252649577161, -1.1906193664680076, -1.2277612458024754, -1.2261887483408869, -1.2498394278374945, -1.244413271162821, -1.2349243506216099, -1.2588396460044515, -1.254336659312945, -1.2503171841322238, -1.2549390857204064, -1.278656463121001, -1.2744548594450482, -1.2654923662967077, -1.28274431395965, -1.277973109176996, -1.2809124396244942, -1.2926035616189757, -1.2809124241227199, -1.273492717064531, -1.268925252585956, -1.3041076726801553, -1.308218151451433, -1.3284698699972308, -1.30480708886155, -1.2980692714965294, -1.304921653392122, -1.3195118444303622, -1.3007627046179773, -1.3004885366252985, -1.3205998831634103, -1.2895127247262461, -1.3115817393110194, -1.297223355089441, -1.2833143340159783, -1.295180093965522, -1.3287570641796953, -1.3400203359100267, -1.3389148516250682, -1.3454486583319851, -1.3521708854290517, -1.3346713866691093, -1.343441044616602, -1.322830372828166]",True,0.8000,0.6000,0.4000,0.1000,0.2000,0.0100,2.0000,True
3,go,Hit,1,0.1600,"[0.0, 0.02087351412921031, 0.030221210203564455, 0.06082501665227179, 0.046088712650039276, 0.06629412894042125, 0.11203646624039656]",False,0.8000,0.6000,0.4000,0.1000,0.2000,0.0100,2.0000,True
4,go,Hit,1,0.4400,"[0.0, 0.04023322949971805, 0.05613824580747494, 0.06692952575900557, 0.04267682760723163, 0.04543723492890217, 0.01792852955684643, -0.001254014063134988, 0.014349284264942821, 0.02015914869825293, 0.02450011550316905, -0.01339460585351996, -0.017652971886627872, -0.0335329037518453, -0.02068649607296303, -0.006561459435221906, -0.009202779688639943, -0.01852350057536932, -0.029586669377637587, -0.029336312903009476, -0.031377007608845396, -0.03201032179422999, -0.003121141087299009, 0.05534991639072622, 0.0653510039062336, 0.05703099478607808, 0.05725828408940778, 0.07113359204747044, 0.041256670718457504, 0.029489676522298457, 0.018629767037453233, 0.06724969206797607, 0.07398892551759119, 0.08963090025367097, 0.1435723892581905]",False,0.8000,0.6000,0.4000,0.1000,0.2000,0.0100,2.0000,True
5,nogo,Correct Rejection,0,2.0000,"[0.0, 0.007860378260901572, 0.03678779186966566, 0.02098594381895683, 0.024910592946940254, -0.004205484677178097, 0.0016707242825440395, 0.04434664732902912, 0.044507672774455026, 0.0067403097704852935, 0.009864345235627178, 0.012557000036755674, 0.009200085245019418, 0.014251435750855919, 0.0012754711612214913, 0.018737688879958365, 0.006679731146204841, 0.022058789999438985, 0.03301336615984933, 0.03288414569030333, 0.016619235296456026, -0.0034611902550388714, -0.046019090494252166, -0.044468166246782216, -0.03498279589789792, -0.03310421457302999, -0.0292069422166373, -0.04548982428996827, -0.04466609108875222, -0.0585064876420144, -0.04441885986926057, -0.04995844540065512, -0.04427697511413034, -0.04910637702808169, -0.06757029575379012, -0.027222208461667424, -0.029369423932744814, -0.046900365579567393, -0.05906142486378972, -0.04277036244737698, -0.08187837778707358, -0.08408374046748035, -0.10449281500066276, -0.11100825426846314, -0.08757772232056707, -0.060662328060380424, -0.10697633048940723, -0.09384942824781478, -0.1417611508918849, -0.16022077558434528, -0.16198020435279678, -0.18316582940116627, -0.1941869354137742, -0.21683263782404916, -0.21745031435532822, -0.21780285153139964, -0.22612868401710345, -0.2636556583883111, -0.28619271417670733, -0.2791891613828545, -0.29441953404129256, -0.31289361595662574, -0.28964312517221535, -0.33430214902313793, -0.3317887621582298, -0.3569636019307454, -0.34202015079515824, -0.35402750600126365, -0.3621622961323864, -0.34257615768312266, -0.3144382228571458, -0.3386203311489794, -0.33705816242176373, -0.3095258556706018, -0.3107061159039795, -0.30449920348133885, -0.30316636121716906, -0.29329612872139454, -0.25331944660134015, -0.27460217511428414, -0.25327343571979366, -0.2744042714781121, -0.25449157512689735, -0.28707056418873755, -0.3235712813226003, -0.3585113268844172, -0.3596337431863534, -0.36542602495581356, -0.40091367290101004, -0.39131143044627226, -0.3755465625801583, -0.3719326774264336, -0.38132875899574187, -0.4060337131617001, -0.4233745993882602, -0.4264725060959318, -0.4390061200080079, -0.43253566825578954, -0.4380046369405583, -0.4707011540279937, -0.5182198744598678, -0.5197823522467409, -0.5328261862980356, -0.574372508167027, -0.621471742060344, -0.6508778716576893, -0.669092112886082, -0.6724685430599207, -0.6985909121340684, -0.7000700786260179, -0.7214003245137713, -0.7076037681912981, -0.711978204836088, -0.7277017055033822, -0.731886688351703, -0.7165218666445893, -0.7299461121469163, -0.733461965398271, -0.7366053064328814, -0.7137845952947609, -0.6925377499174173, -0.6840785939094909, -0.6669311060393283, -0.6916393711898186, -0.6828478449265195, -0.6786152252575782, -0.650750729571696, -0.646997028704495, -0.6560769302200357, -0.6727243216550041, -0.6946654342113835, -0.6887619521862832, -0.6908304512218462, -0.7213235906409055, -0.7190709814672851, -0.7295983030262454, -0.7601163746608198, -0.7629186063114715, -0.7757752136228447, -0.784322394950635, -0.7891494811090449, -0.8195834855539365, -0.8089435918097414, -0.8247264557104701, -0.8133507461691939, -0.833310905278718, -0.8656925064346417, -0.8806890178469378, -0.8893019617300201, -0.8576522637797986, -0.8884728483166432, -0.8609059134298376, -0.8358642878995401, -0.8505217257815645, -0.8700215366083311, -0.9308692033324725, -0.9290202832197952, -0.9049080973076187, -0.9154524580391029, -0.8814232323187656, -0.8851950263906323, -0.9139175691888145, -0.9112929468959357, -0.9382058349108082, -0.9591360288394697, -0.9749071060945892, -0.9925395219621677, -1.0202824707299873, -1.0198314518200378, -1.0296142810913533, -1.0040034396096498, -1.0143586705725463, -0.9840257516952836, -0.9931200455387934, -0.9923917905398837, -0.97351534069599, -1.007062661300988, -1.0149455323862777, -1.0279793750480877, -1.0319391797178576, -1.0783045905749227, -1.099381735099148, -1.0748306648360029, -1.123144109256994, -1.149311717451968, -1.1573081111086625, -1.18979980136772, -1.2045565007541725, -1.13541928725776, -1.1491462510596078, -1.1456197915011221]",True,0.8000,0.6000,0.4000,0.1000,0.2000,0.0100,2.0000,True
6,go,Hit,1,0.2200,"[0.0, 0.018338907644298016, 0.012402192408568505, 0.002633616148617686, 0.009806210430539813, 0.009415052701484539, 0.03845605628005858, 0.043538527565624485, 0.07402231713156901, 0.09108363374743922, 0.08780723611876276, 0.08153095375294003, 0.11134198921270433]",False,0.8000,0.6000,0.4000,0.1000,0.2000,0.0100,2.0000,True
7,go,Hit,1,0.1600,"[0.0, 0.03049335489744136, 0.027702476433395143, 0.03949011920676762, 0.052140083528648046, 0.07334913245884644, 0.10653178378872927]",False,0.8000,0.6000,0.4000,0.1000,0.2000,0.0100,2.0000,True
8,go,Hit,1,0.3500,"[0.0, -0.006461334041788997, 0.044989395332001726, 0.04121898877023875, 0.02907572846152196, 0.00519122265490813, -0.010240741276117914, 0.0075665100550290874, 0.0098499794140895, 0.03196227605345517, 0.04180193919416343, 0.05867807727604725, 0.06342914064401178, 0.04392783028349747, 0.056386391482178624, 0.0677982667538398, 0.03276541052004779, 0.008829428811315182, 0.040316188653365156, 0.025853186929494065, 0.022021824603565505, 0.03437966475075153, 0.045124773802329286, 0.08135232811370618, 0.09777947541138529, 0.10764657022608853]",False,0.8000,0.6000,0.4000,0.1000,0.2000,0.0100,2.0000,True
9,go,Hit,1,0.2900,"[0.0, 0.00023707593236739835, -0.010575816703343763, 0.0015183331142018426, 0.0044139483401107234, 0.013854883669819235, 0.008908858145330233, 0.030848098876373905, 0.020073953258043262, 0.050046034729153116, 0.057014536742315026, 0.03523832917225808, 0.01918299756959974, 0.021217001939446572, 0.010650320746726168, 0.03200116830801335, 0.0697257630429398, 0.07750518576397676, 0.09067573082337557, 0.1120510566899394]",False,0.8000,0.6000,0.4000,0.1000,0.2000,0.0100,2.0000,True
10,go,Hit,1,0.1600,"[0.0, -0.006720382813724892, 0.052600712425096556, 0.03571082109599798, 0.0484076888776824, 0.08183443964994376, 0.10249806944086348]",False,0.8000,0.6000,0.4000,0.1000,0.2000,0.0100,2.0000,True
11,nogo,Correct Rejection,0,2.0000,"[0.0, -0.012222148108320858, -0.013717090673718539, -0.010685139151134088, 0.0011649717573595751, -0.030075995462885776, -0.05590997554549524, -0.10136551508824934, -0.09995685315854035, -0.1136176563282728, -0.13694274843775234, -0.14181540057433473, -0.12540879541359662, -0.11657261656767223, -0.11312088655102563, -0.1312576942256863, -0.13419577588781514, -0.12365570229309365, -0.1286990481328418, -0.14243037619365723, -0.11472889724953901, -0.11749941868553045, -0.11858786254372519, -0.1387858158899279, -0.16215906479286435, -0.12418917476875056, -0.17016450938669653, -0.1666178982394439, -0.14501790093125083, -0.14262848563981034, -0.16189382844049052, -0.15635813254327088, -0.15944814994027262, -0.17840270877550812, -0.17094955182100133, -0.14222197837398157, -0.136452306992494, -0.13799148969880487, -0.18341342607758418, -0.1822276831118851, -0.2040756141006576, -0.2180274128205759, -0.22651456011298793, -0.23218697001053348, -0.23760604380691114, -0.22331155818991083, -0.19834376423250527, -0.2300952624006287, -0.25709952632153343, -0.26615717181982945, -0.272228894791572, -0.27790920431369587, -0.28604988294092465, -0.2719222001083348, -0.29782494086578365, -0.30907287578606474, -0.34283311445999326, -0.34988802423914156, -0.3482399223039066, -0.3802924284602317, -0.3542436284851168, -0.37630626425873565, -0.3715921932321722, -0.3560992162996221, -0.36563360645670606, -0.38152386755749623, -0.3869665359249332, -0.3901553644495509, -0.37773775174739505, -0.3162194734152024, -0.3238100260086471, -0.32403534125625716, -0.3479815039387672, -0.36738752060631663, -0.3804760085376461, -0.38892690644883116, -0.377370307260306, -0.394455534662766, -0.41359467231985525, -0.4016222809231088, -0.4119589120823625, -0.4061995937272493, -0.3954190295724874, -0.3780359149226196, -0.40073085974622435, -0.38893564691638854, -0.3854869089262436, -0.3977424225811504, -0.3954990079995678, -0.39060047902983974, -0.3606450393260264, -0.35626699127894124, -0.3441089771921841, -0.3495706203080521, -0.34610782880397245, -0.3458187587999529, -0.3378206709443906, -0.38690189176087475, -0.36022649588237504, -0.37792891483677105, -0.3701431094077817, -0.38027562511058866, -0.3732716525620309, -0.357835264475535, -0.3361214675434412, -0.3041255185961326, -0.3227545447593014, -0.3048136332747315, -0.28655081638358615, -0.3232048827241884, -0.33702404340204567, -0.3196397444939953, -0.34298790361140297, -0.3806554986603432, -0.3827913322626207, -0.4053153691316193, -0.3760288515588861, -0.3818555695477199, -0.3915572652445551, -0.41669625091294754, -0.4305725695573854, -0.4500570863873044, -0.4414143033052825, -0.4343588233176488, -0.44325599467302834, -0.42994796871701185, -0.4408927773244172, -0.4449178972603601, -0.47328786765021136, -0.4747794320633971, -0.5347274973856083, -0.5636819591739335, -0.5848195100593528, -0.6162477407053731, -0.5946563837749504, -0.5981184994944314, -0.5659254991356797, -0.6136931654736921, -0.5965698553243076, -0.6014099311631957, -0.6206671740858443, -0.6413683218224645, -0.6607156154450744, -0.6548945581967406, -0.6510948415638906, -0.6302884830369492, -0.6264069776762533, -0.6197277315048804, -0.6276394128343937, -0.6293799513541969, -0.6298540791141862, -0.6133157117218998, -0.6227045182698152, -0.6435774287972014, -0.6509162441842661, -0.6704163077652351, -0.7160976096739664, -0.7188649771567807, -0.7483503257826903, -0.7583546822605175, -0.7453979171464234, -0.7536242898228763, -0.7584196472512398, -0.7516213618488797, -0.7435641123797258, -0.7540276367151175, -0.7815307482643988, -0.7683418591491975, -0.7698866754502967, -0.7757637561947655, -0.7719142597977702, -0.8179474311466183, -0.8128392475261725, -0.8257215028555871, -0.8251735826766909, -0.8374645299720765, -0.837587435636702, -0.8327848365073786, -0.842982803470518, -0.8756387523484513, -0.8489966444354995, -0.8657536315654453, -0.8948648484234608, -0.9217730126061274, -0.9290575761276315, -0.9120804335156936, -0.9066073774125263, -0.9082854218278116, -0.9412372213415363, -0.9417848395554488, -0.9296586466141793]",True,0.8000,0.6000,0.4000,0.1000,0.2000,0.0100,2.0000,True
12,go,Hit,1,0.1700,"[0.0, -0.016757524652983472, -0.008248215695088908, 0.03941147487935121, 0.05801560823352597, 0.09596530443150528, 0.07457282672948873, 0.12025642498530595]",False,0.8000,0.6000,0.4000,0.1000,0.2000,0.0100,2.0000,True
13,go,Hit,1,0.1600,"[0.0, 0.01105463901686673, 0.020490295589063297, 0.06282466603744796, 0.06393394625937689, 0.07787918030749903, 0.12496661957829616]",False,0.8000,0.6000,0.4000,0.1000,0.2000,0.0100,2.0000,True
14,nogo,Correct Rejection,0,2.0000,"[0.0, -0.023673636787729206, -0.025728991881354617, -0.046129326478239654, -0.058743391384861586, -0.051610402055923654, -0.06837400328948301, -0.0976041381783149, -0.09269444327209951, -0.10904670237822628, -0.11188273873410455, -0.12720156305869135, -0.1439512209984089, -0.15204012565864802, -0.14652184848825497, -0.1633742919681412, -0.14188128292166036, -0.15745069849602616, -0.16231925048754461, -0.1801266385188172, -0.178369014969167, -0.17834364076006728, -0.1694075528218586, -0.1875411571065315, -0.19547341035608695, -0.21213492441794, -0.18697169957729323, -0.1659366800619001, -0.17518626045211455, -0.19714061153233403, -0.2170812394582518, -0.21776960973517615, -0.21187256446665814, -0.18108961967351367, -0.1563217638280233, -0.18349393296651909, -0.18866447902474098, -0.1633785286410645, -0.15111200256438576, -0.13516310301564965, -0.13342164700466994, -0.12496307284044535, -0.1311273971068602, -0.13619860865529232, -0.138303778875638, -0.17710626278168776, -0.15619496435224065, -0.18103170470538496, -0.1774038417279872, -0.20068937235256207, -0.22184862927332225, -0.25185142362641094, -0.25083691722152984, -0.19519649232767056, -0.2000736413031334, -0.20882663723417277, -0.20115563156823496, -0.2111683835148942, -0.19941401802259962, -0.21306650136124947, -0.1931674719457602, -0.210614419350839, -0.20810646673675087, -0.21566585007278827, -0.18440633523828137, -0.1594167736860054, -0.1421135329086199, -0.16658699482681164, -0.19180438594503335, -0.2225637082980214, -0.21283705789578317, -0.22919889714404704, -0.20073108817824084, -0.22048021178115323, -0.18788019967985395, -0.18392642758107927, -0.1808294044736846, -0.1436487665665765, -0.11368956883069319, -0.13283184962125527, -0.1253774264456326, -0.11048006830558213, -0.0837489950497731, -0.07952062851077005, -0.05997771643482843, -0.07240336314189179, -0.04647828720744317, -0.06797158303512599, -0.08537279048021178, -0.08422145638344232, -0.07959311204476302, -0.0745661165047097, -0.07920924587400528, -0.1303009690216065, -0.1330729279147503, -0.15431728807220052, -0.16889232946960128, -0.16206472998639818, -0.17006888675017398, -0.20030448640122922, -0.18598926642575403, -0.19721927546345222, -0.23318086963648973, -0.25247432614973886, -0.2848733306298235, -0.32206658863515814, -0.32501015955088347, -0.34848793306901504, -0.3552444627073033, -0.3595173675222572, -0.3506593734897758, -0.3249019554013969, -0.31661864460499706, -0.32038276389664333, -0.3506514035561215, -0.36771575590134875, -0.3970150397194123, -0.38423162318185733, -0.41062336922681275, -0.4285717743471724, -0.4669352462701446, -0.46044296153285347, -0.45974442460202936, -0.4782070235139809, -0.4940989811872438, -0.5180184246135953, -0.5812917203088294, -0.6083663529999274, -0.6563284726652405, -0.673097608334608, -0.6514111629043488, -0.6767184502015983, -0.7148914975668308, -0.7149463631763073, -0.7328682027483536, -0.7522395333498872, -0.7658545914184622, -0.7749484930672176, -0.7886486756059965, -0.8166121240436415, -0.7853223741113168, -0.783782417656964, -0.795152797926193, -0.7664135111321503, -0.8033732912936044, -0.8103264974165253, -0.8087961923759202, -0.8167857106330156, -0.8251082978780331, -0.8450733201030827, -0.873626697536606, -0.8899304095938368, -0.9134327784002038, -0.9326525444350984, -0.9303144801581376, -0.9003952980701583, -0.9216975138791564, -0.9674595718241755, -0.9745078864933708, -0.9577021725472281, -0.9763716485492242, -0.9657044720385215, -0.9713079869459981, -0.9901655027455961, -1.0091799118540412, -1.0341180612955145, -1.0363583393911835, -1.0295477599815321, -1.025041779187693, -1.0651547250231468, -1.086694542181314, -1.0633342838568822, -1.0832722778821287, -1.1417059590549368, -1.1704535110491696, -1.1493532686020766, -1.1709209096671802, -1.1712939460664946, -1.1676657844390246, -1.1817802982686625, -1.1994719275661658, -1.1900246706515958, -1.179173136720469, -1.2032500679941525, -1.236443746928126, -1.2749090046682716, -1.2852591660539574, -1.2985729939075847, -1.316365727837811, -1.3387886687606072, -1.3410135641017802]",True,0.8000,0.6000,0.4000,0.1000,0.2000,0.0100,2.0000,True
15,go,Hit,1,0.1200,"[0.0, 0.0632248032575224, 0.10636633932479568]",False,0.8000,0.6000,0.4000,0.1000,0.2000,0.0100,2.0000,True
16,go,Hit,1,0.3000,"[0.0, -0.02152545419220877, -0.012121149502920606, -0.02245990289154963, -0.05376847941078745, -0.040762652259323025, -0.04658193862593463, -0.04403888003912439, -0.029906125718235744, -0.029823532829335517, -0.025044697140605126, -0.0060150392345951105, 0.03620856427821152, 0.021024491993904132, 0.011439153861120422, -0.0008055476063602955, 0.005459121461820095, 0.03438147002240896, 0.05028431880518252, 0.09725794812341956, 0.12345552943799872]",False,0.8000,0.6000,0.4000,0.1000,0.2000,0.0100,2.0000,True
17,go,Hit,1,0.1600,"[0.0, -0.0039512943225510425, -0.006198721404008048, -0.0002552116952544512, 0.013816058510734374, 0.04955721981032554, 0.1010616335134079]",False,0.8000,0.6000,0.4000,0.1000,0.2000,0.0100,2.0000,True
18,go,Hit,1,0.2900,"[0.0, -0.008730486818429424, -0.009279845925149464, -0.008652164050455232, 0.002120705608878686, 0.0302291658449377, 0.031690653525724005, 0.03095526270982541, 0.0532138738704869, 0.03753949071849828, 0.04193066770593376, 0.052321325793907185, 0.05343326782496245, 0.08060547909289621, 0.06900802721532225, 0.0391940343830302, 0.04378987889700178, 0.07018390428701961, 0.09509966855943687, 0.14553797576265565]",False,0.8000,0.6000,0.4000,0.1000,0.2000,0.0100,2.0000,True
19,go,Hit,1,0.1400,"[0.0, 0.05208721597768289, 0.06326386177332105, 0.0846935636241886, 0.1129537419381574]",False,0.8000,0.6000,0.4000,0.1000,0.2000,0.0100,2.0000,True
20,go,Hit,1,0.3900,"[0.0, -0.02006065655463476, -0.022463049824358636, 0.00822327453713833, 0.014519472394420078, 0.03661975175171503, 0.05190877373838489, 0.05939269608277334, 0.05229969180358255, 0.05548147593922461, 0.035628389996915796, 0.04704937058700327, 0.03439017031132811, 0.06129285266776906, 0.04898655909526008, 0.07218094929128367, 0.032288819396743045, 0.010910806229449805, 0.021191110784304343, 0.03602848261255093, 0.018420668351212335, -0.004541107276838246, 0.01393554148778876, 0.01409417682067505, 0.028638293498937952, 0.017077398867218086, 0.0319351121844577, 0.0356386152501663, 0.08182768313825226, 0.12819600942776374]",False,0.8000,0.6000,0.4000,0.1000,0.2000,0.0100,2.0000,True
21,go,Hit,1,0.2000,"[0.0, 0.018611586168531254, 0.006972234177486783, 0.03312256018585895, 0.03572147245497613, 0.029942101703528217, 0.02518515852836293, 0.05456455385447759, 0.0280823282036642, 0.04781232118570265, 0.10219420465920953]",False,0.8000,0.6000,0.4000,0.1000,0.2000,0.0100,2.0000,True
22,go,Hit,1,0.2400,"[0.0, 0.01887824597551544, 0.0292689348613175, 0.03147396252651386, 0.04077133836975219, 0.07783251905801111, 0.06451267667099302, 0.07934703589761644, 0.06279178997462301, 0.054464879396303456, 0.07447969348587002, 0.08920795810693177, 0.07411259923591412, 0.08921215504715548, 0.1347509710807563]",False,0.8000,0.6000,0.4000,0.1000,0.2000,0.0100,2.0000,True
23,go,Hit,1,0.2000,"[0.0, 0.047945656884833605, 0.06143484702933505, 0.04966308817196098, 0.049470491840445364, 0.0641977012527614, 0.06892730262756842, 0.05634665201587981, 0.05907787618393621, 0.07930002857144243, 0.10854441101107981]",False,0.8000,0.6000,0.4000,0.1000,0.2000,0.0100,2.0000,True
24,nogo,Correct Rejection,0,2.0000,"[0.0, -0.008630813007147518, -0.028419003228212142, -0.03671039122243392, -0.03221401591876745, -0.032377748118333, -0.0308801344075173, -0.037342590860861787, -0.07365570416791914, -0.07917116337179356, -0.07223463279940369, -0.12859958061091337, -0.1447697797747899, -0.152374836001117, -0.14318493095595425, -0.14079452223122124, -0.12802841815912985, -0.110484492715791, -0.13319530577977534, -0.13529412207633496, -0.15473961470640668, -0.161159177237913, -0.17910553605735433, -0.17390936370846466, -0.1546207224284787, -0.15180417115492914, -0.16187172370687714, -0.18036346455415353, -0.16751035187930968, -0.16734787244252053, -0.19006758375779806, -0.1683822374846668, -0.17126290916311418, -0.16082071310849783, -0.18445948526759848, -0.2050364527718328, -0.21080869092169457, -0.2436958902164052, -0.26759648276230463, -0.2852064942675906, -0.28519860870487257, -0.28596716345664774, -0.2662584057284214, -0.27498624658449194, -0.2824786474754198, -0.2896360782745502, -0.3127394052731812, -0.33948219687304393, -0.34231898653891457, -0.39917178851447227, -0.3989929344374711, -0.419398757646066, -0.42276963480728563, -0.415546225834967, -0.4164845943793322, -0.4286575489370095, -0.4276149671422821, -0.4137905671575318, -0.44531883776308057, -0.46999017484349903, -0.4345303768385264, -0.43209383898083126, -0.43342932640083964, -0.45763496881533783, -0.4635880410081123, -0.4946440071767248, -0.531064839144891, -0.5151282198253371, -0.5080752093313667, -0.5403741871901204, -0.5677566367576687, -0.5708738343670613, -0.557119358637584, -0.5478203760146967, -0.580596039434443, -0.6057662054422507, -0.5993842746959978, -0.5915067542516684, -0.5928631402402869, -0.5832628518076072, -0.5805455153757232, -0.610881003191142, -0.5931955197801785, -0.6096726665949432, -0.5475933530492152, -0.5605561895529377, -0.5585013720354998, -0.5786619550082654, -0.591953620771907, -0.570204722090768, -0.6104189688810766, -0.6152444856786641, -0.6593841102552487, -0.6687960522818024, -0.6801496569263606, -0.7190000804785236, -0.7334816995359753, -0.7141789057378596, -0.7037249710357186, -0.7128050698485517, -0.7170899644220016, -0.7529746583640058, -0.7398027336557831, -0.7451191303455424, -0.7421073250205373, -0.7320915785354173, -0.7320900761375515, -0.7116300931507761, -0.7391597031944125, -0.7098132029197671, -0.7140412875322053, -0.7063164083918312, -0.7085380932477625, -0.7069251654276152, -0.7223139998963402, -0.7272012902142132, -0.7320635503948355, -0.7259846602307608, -0.7401537876684506, -0.7264915809580957, -0.753704724775144, -0.7637126519773559, -0.7882594155404508, -0.7890865896976689, -0.7847061425445692, -0.7723497185533664, -0.7670775158083782, -0.8039498187330218, -0.8020847151063781, -0.79341817931955, -0.7990904997618626, -0.7972747530619264, -0.7894228203218785, -0.8094785360056601, -0.8166329976750302, -0.8362370275932508, -0.8227892465974647, -0.8547548673431367, -0.8449537341508684, -0.8548436716927278, -0.8372443984788174, -0.8404436486421706, -0.8278543044371489, -0.822507103263401, -0.8636181636786577, -0.8550664594660721, -0.8883347877424679, -0.8975322633094822, -0.9166123202762128, -0.9060618933756684, -0.8998567154852881, -0.9193924077105021, -0.9073003609515231, -0.9161000554157606, -0.9133618487394515, -0.8902324428037945, -0.9131572122675272, -0.9127715629679968, -0.9165089966680664, -0.9221173706601671, -0.907590186236051, -0.9125456512456348, -0.9159360255180441, -0.9134893178055782, -0.9373547182177479, -0.9196495964496961, -0.942943229196076, -0.9220111394638898, -0.9215221067449498, -0.9346069679563357, -0.9231936689570731, -0.9340090516063887, -0.9288837062040565, -0.9033232436650235, -0.8895662634348881, -0.896886612340642, -0.9057242428462297, -0.8897206603791967, -0.8924121024626965, -0.9106340760926946, -0.8990347803713624, -0.919593045865378, -0.9515364672328684, -0.9705597887580014, -0.9759806661747831, -0.9733644190099052, -0.9681816976828189, -0.9635910814291366, -0.9833254806706513, -1.0382196034586597, -1.0394245626667922]",True,0.8000,0.6000,0.4000,0.1000,0.2000,0.0100,2.0000,True
25,nogo,Correct Rejection,0,2.0000,"[0.0, 0.013837649068798655, 0.011284973016789806, 0.015874139500822584, 0.021936525288117258, -0.0031988228575276605, -0.032705508970346596, -0.019399167037431386, -0.01183093400635487, -0.010725327472844926, -0.02769783851072102, -0.03819049304618727, -0.03558408884299137, -0.08865424912317026, -0.07597359387962169, -0.09639737603812507, -0.06885361085347065, -0.06410232539810662, -0.10608918226099341, -0.10298009636513876, -0.08782229011602329, -0.11419503094449221, -0.13049598779929553, -0.10992685514068141, -0.08994420683966754, -0.10178190660558564, -0.09760363274994133, -0.11320538104118615, -0.11862615399095001, -0.11518122119158561, -0.16531282677538278, -0.12851947205536104, -0.11933254527694837, -0.11473166361023776, -0.13350018693958482, -0.13600237852254787, -0.15133018345966814, -0.1415678315608574, -0.12532350022994987, -0.13653199677130046, -0.17398914963911793, -0.16209166974430433, -0.1770225565584011, -0.1661545367791524, -0.15803614154798454, -0.15273517337516584, -0.1623310949537947, -0.16784221781463238, -0.1721777399971138, -0.15053116387270993, -0.1318839419904522, -0.1198853328310025, -0.13482999848329014, -0.1235045374978349, -0.12338488552384486, -0.1236147577025123, -0.1070188899110649, -0.12277815531998268, -0.14148656668603185, -0.1158585117378019, -0.11509807383311667, -0.14975895459144278, -0.11956688145162717, -0.11857713335540186, -0.11142830941951647, -0.12069918326772941, -0.12813556626533218, -0.11007261548117236, -0.09632369616172426, -0.10220528109184104, -0.11594225149302856, -0.12056579866430567, -0.13268169015324371, -0.16836725367267305, -0.1965361476653377, -0.21522717130336166, -0.2314370227384752, -0.24817903256012322, -0.25153709498193577, -0.2587326361407275, -0.20444632760984865, -0.21208467259109676, -0.22819068395729267, -0.19853251320219423, -0.23033428848792906, -0.23917963901014647, -0.23647689550754192, -0.2498925870155818, -0.24836653263209452, -0.23949980036125945, -0.2632103382396593, -0.24521856824665642, -0.23717772565463885, -0.21851144978961629, -0.22033373151216967, -0.20755881415057117, -0.21406652198102444, -0.22493670135841912, -0.18467762103471677, -0.19303973325902143, -0.2249543845955803, -0.20689011933857546, -0.19795027458735204, -0.2095259897180221, -0.18007281218026266, -0.20161647856108392, -0.23585753362544593, -0.22220983739469383, -0.21500661412302957, -0.1990500869500327, -0.1898389868600986, -0.18950874728708572, -0.21945809138216665, -0.229304589415065, -0.23549512215005275, -0.26023934960167394, -0.2600433455301341, -0.29901249187312057, -0.2708790058093138, -0.25201397271671805, -0.3030216028953302, -0.3108426544941113, -0.3217500035159804, -0.3702777219932103, -0.3693790541616298, -0.3715612087080083, -0.37499080100258203, -0.41220699476045186, -0.426022626878509, -0.42777346929450977, -0.44924520447748223, -0.39867481509928215, -0.395552997698129, -0.4533077261607399, -0.4472364163045418, -0.4691267886940682, -0.4929880214097441, -0.49893840694521874, -0.4863579264685305, -0.5194658818987697, -0.5318147858536446, -0.5174316718466521, -0.4715753134931013, -0.4868106450142675, -0.48649641761175944, -0.4814791886695228, -0.4944142014857365, -0.4704023370709999, -0.4998513328519071, -0.5302243919956037, -0.5669587260558931, -0.560184943582891, -0.5611692820943464, -0.5663100901553171, -0.5826858111902248, -0.5941499988726494, -0.5947556733192857, -0.6046021707174174, -0.6085690719597686, -0.6064530617497749, -0.6170347161797142, -0.6045549360856556, -0.628336631189889, -0.6284335584292581, -0.6466192751822507, -0.6637761911880942, -0.6610194633458351, -0.6643109997710696, -0.6680766159194618, -0.6591254132167347, -0.6530257351754175, -0.6415095530964605, -0.6234166432731723, -0.6660395119983349, -0.6547380343956032, -0.673008486278832, -0.6785256523164334, -0.692461959185334, -0.6724065708888876, -0.6892333905925303, -0.6900455609147226, -0.6937627065041526, -0.7072837939534149, -0.6737572476517459, -0.6771186897726611, -0.6882819115474998, -0.7027777749943508, -0.7026031622685666, -0.6858332008728356, -0.6665868071135509, -0.6947226129267462]",True,0.8000,0.6000,0.4000,0.1000,0.2000,0.0100,2.0000,True
26,go,Hit,1,0.3000,"[0.0, 0.02301556156401176, 0.03543913495949627, 0.007207907355197149, -0.027682430236357886, -0.026262439922881974, -0.040893717088399964, -0.04974580301743116, -0.056866515887949956, -0.031910739419015254, -0.02269144178808585, -0.041448402110228086, -0.024045627849961226, 0.003359328468854131, 0.029164874049134776, 0.05732719232446688, 0.09121292219103916, 0.07121831984057386, 0.08703843760043073, 0.09987367420547856, 0.11309284657854289]",False,0.8000,0.6000,0.4000,0.1000,0.2000,0.0100,2.0000,True
27,go,Hit,1,0.2700,"[0.0, 0.009372750613053283, 0.005658531637667772, 0.03111986166577104, 0.02495021536771111, 0.03552361789944844, 0.0594723054068112, 0.05871682929582496, 0.08036261721995903, 0.06757193214742518, 0.08137080566969557, 0.09784426983638703, 0.06000056251510578, 0.03553066068835445, 0.03800808170268655, 0.08393913256465171, 0.08851815252103298, 0.10409158199344264]",False,0.8000,0.6000,0.4000,0.1000,0.2000,0.0100,2.0000,True
28,go,Hit,1,0.1700,"[0.0, 0.0065951991884415926, 0.022652302303978328, 0.0316100747921264, 0.09608903261280477, 0.06953457725890091, 0.08714347099989722, 0.1070704265477744]",False,0.8000,0.6000,0.4000,0.1000,0.2000,0.0100,2.0000,True
29,go,Hit,1,0.2600,"[0.0, 0.03794336396811747, 0.03673154015331637, 0.03090274613696966, 0.03388584854563753, 0.04556358773832413, 0.0479907529998416, 0.03981645249285927, 0.0026028329910595185, 0.0205871561459857, 0.06651354740665656, 0.05639376234656995, 0.08261659286428545, 0.09228866313588266, 0.0813894000583856, 0.08457169547140388, 0.10089756868710434]",False,0.8000,0.6000,0.4000,0.1000,0.2000,0.0100,2.0000,True
30,go,Hit,1,0.1700,"[0.0, 0.031105076705717775, 0.04750063574508327, 0.023473164731294203, 0.03782354724337378, 0.08644066059906216, 0.0919623149738843, 0.1195177131695092]",False,0.8000,0.6000,0.4000,0.1000,0.2000,0.0100,2.0000,True
31,go,Hit,1,0.1800,"[0.0, 0.03454442832026776, 0.03005974017692176, 0.06109321136417736, 0.06927666988328661, 0.0888363415136441, 0.08943823258663222, 0.08617554965121013, 0.10266013035872175]",False,0.8000,0.6000,0.4000,0.1000,0.2000,0.0100,2.0000,True
32,go,Hit,1,0.4600,"[0.0, -0.007467849394800904, -0.02139730467015473, -0.005057315260698653, -0.048428575036175106, -0.044894875065539866, -0.040523540769580944, -0.016772844148817516, -0.03402747280905941, -0.04174292257180047, -0.06170511027461782, -0.08170907764212303, -0.06651862083482442, -0.09990770188525794, -0.12382841406211899, -0.10484730759624825, -0.10824761827173843, -0.12184407132925335, -0.1580339748287052, -0.1440025945519702, -0.12769378362081615, -0.157213506368869, -0.14084579198294078, -0.10714782293802744, -0.1157764616243478, -0.1281528530019811, -0.11714058721544969, -0.07981649896471978, -0.040752913466681105, -0.020427250109383295, -0.0229270210252761, 0.009783614278995809, -0.018746868661278414, -0.0011203089189627605, 0.04810822041529473, 0.07668139744172087, 0.1027051145480169]",False,0.8000,0.6000,0.4000,0.1000,0.2000,0.0100,2.0000,True
33,go,Hit,1,0.2700,"[0.0, 0.013581385254143322, 0.01194626826519473, 0.0019014081478463743, -0.0008373347473970508, 0.017912496652416073, 0.041485070203814575, 0.05463741083913614, 0.0822150869367251, 0.0859449845268205, 0.0831154506120384, 0.08510288517885131, 0.0755259203110694, 0.07826223781320954, 0.09093996694022652, 0.0926628628308338, 0.07642278869688941, 0.1002112147333033]",False,0.8000,0.6000,0.4000,0.1000,0.2000,0.0100,2.0000,True
34,go,Hit,1,0.1600,"[0.0, 0.027398224181315198, 0.04168178820726961, 0.06470258274713271, 0.06102210745759372, 0.09709796848452039, 0.1057945830976351]",False,0.8000,0.6000,0.4000,0.1000,0.2000,0.0100,2.0000,True
35,go,Hit,1,0.2600,"[0.0, 0.0011936006671424302, 0.0018902854326551402, -0.001160331413480281, 0.008911591882863619, 0.03510738125858008, 0.04953314884188059, 0.071554837150112, 0.06455387951092117, 0.0747726593738575, 0.06120859469086644, 0.04207948060927182, 0.0678208104943374, 0.08543397285613695, 0.09256522869175596, 0.09686682353185026, 0.11481397113005606]",False,0.8000,0.6000,0.4000,0.1000,0.2000,0.0100,2.0000,True
36,go,Hit,1,0.2300,"[0.0, -0.023229385424345626, -0.030989089811366007, -0.03152671389277358, -0.01706310414025322, -0.016713636877548083, -0.005481588048044297, 0.022849188834756468, 0.05340185746327872, 0.07293636307501494, 0.0712713535494116, 0.0691405680625135, 0.08678991788043441, 0.10772861453565467]",False,0.8000,0.6000,0.4000,0.1000,0.2000,0.0100,2.0000,True
37,go,Hit,1,0.2400,"[0.0, -0.02818015108520705, -0.03658858589467756, -0.020671907787281642, -0.009937021232854113, -0.0157914165811484, -0.012337743211732559, 0.018772671651904785, 0.02181042305575799, 0.030889912724534164, 0.040469438467557295, 0.04177228727193896, 0.05528446371623999, 0.06361430714604692, 0.11506294244558261]",False,0.8000,0.6000,0.4000,0.1000,0.2000,0.0100,2.0000,True
38,go,Hit,1,0.2000,"[0.0, -0.009701859804736316, -0.020137778221654905, 0.018434094754479123, 0.033314531810412704, 0.06511921507938537, 0.0734405288582255, 0.03836031039666752, 0.0520670609036765, 0.045878596450729156, 0.10468689169408665]",False,0.8000,0.6000,0.4000,0.1000,0.2000,0.0100,2.0000,True
39,nogo,Correct Rejection,0,2.0000,"[0.0, 0.010134039261500284, 0.008202796312928282, 0.0044854961601564595, 0.005728095284513238, 0.024702726694673976, -0.010320987533696067, 0.005632735758369523, -0.019881954368709234, 0.005961318632801027, 0.011181670816148511, 0.008376075288797812, 0.038934322792597766, 0.0322978313819642, 0.02663227466073678, 0.013522872167731105, -2.3169848072226995e-05, 0.06328744019878511, 0.04721481993718335, 0.0431424094723783, 0.06116351086464301, 0.04566241940929344, 0.038477952129601464, 0.06363769698960525, 0.0612378900994103, 0.04950959300451353, 0.05354946931414046, 0.060895122916506686, 0.0368383030875753, -0.007739108015647374, 0.02003940005685401, 0.0278706512026086, 0.06598150127662558, 0.044266789591054616, 0.04529508657460519, 0.05136460302331184, 0.02982130015205534, -0.017792052777834775, -0.03675292919857269, -0.040840179728001795, -0.09314841413633526, -0.12288385598147394, -0.1124804632124188, -0.0837397584213456, -0.1002871457467602, -0.11075980868523308, -0.11715518026935921, -0.10137206374966318, -0.09467852414371104, -0.11047196682118926, -0.09857726462673784, -0.12101214198099476, -0.13438586533471392, -0.15964900562961515, -0.15089505732498693, -0.1660860939130768, -0.16955836758712975, -0.15208789596809721, -0.1827974904912293, -0.18295620560699802, -0.21456336076788998, -0.18547307587898415, -0.19439931523756723, -0.1921662351803833, -0.18504145187737459, -0.1774259161506694, -0.1779380514680829, -0.1922131422676444, -0.212279005681814, -0.20812776066410602, -0.18966489307184917, -0.21808815360554662, -0.23856059323336104, -0.240918626757931, -0.2659697294363325, -0.2778527568075207, -0.25585454613135056, -0.2545903536042293, -0.28928415061920976, -0.3044110398697257, -0.28001600251743763, -0.26443829767901694, -0.26205443420084484, -0.2413324293813562, -0.2387137941239078, -0.26347737006901795, -0.2941452103255205, -0.30978373991105257, -0.2868979391715912, -0.2648877238234025, -0.2641239630747031, -0.30473765632089633, -0.35127275305523276, -0.34123395419296937, -0.3865035786416356, -0.3737189264978156, -0.35535734781302336, -0.34948124822365395, -0.35794743960136904, -0.379246278253949, -0.4018069793358737, -0.386969596071635, -0.3648522303980043, -0.37359258083223296, -0.3561887182772545, -0.34890342258700796, -0.3366749596601005, -0.32486301018038644, -0.35133353087170327, -0.3482814350477055, -0.34481816937808674, -0.35324334367450205, -0.3545397645198467, -0.37954547740957795, -0.379005288550111, -0.373546775548313, -0.363851403582716, -0.38549942472961607, -0.35398501110542085, -0.38549406447212636, -0.392791119789774, -0.3997575882092039, -0.4219639402796254, -0.39392868050289215, -0.39691685890260264, -0.40338871570862317, -0.41721377406075516, -0.3896194869261419, -0.4130376454758971, -0.4301592458522697, -0.47242853613991137, -0.4977674549524198, -0.4683809068939765, -0.4466176794394833, -0.4310434254290283, -0.44223503123583463, -0.46748488959696066, -0.47672554872196937, -0.4575244539029988, -0.42690569855711746, -0.45605033218539, -0.46657597571652176, -0.48414013491653396, -0.4703102680793281, -0.4825601712855016, -0.4722785839916744, -0.43866566818974495, -0.45528141876981215, -0.4511664058006549, -0.4781633607032741, -0.5188015492241246, -0.5295920035009769, -0.5640381267708142, -0.5483837803965534, -0.5210490148134205, -0.5412124506597994, -0.5637771090335629, -0.560576779621224, -0.576497548820909, -0.584580076337999, -0.5723115352691883, -0.5753763516809789, -0.5700027558105939, -0.5811056305390545, -0.5937932176672681, -0.6021767926804423, -0.5941778267255096, -0.5904796029644199, -0.6133885170173837, -0.6246033452615097, -0.6242127832334593, -0.617740420027913, -0.6048172061647485, -0.6223131445488672, -0.6371246823750416, -0.6292560480054699, -0.6334583098825292, -0.6439748544048423, -0.6603432689826555, -0.6296375360592824, -0.61241240720693, -0.6382569134309075, -0.6413948402666108, -0.6541391265836696, -0.6387862288589881, -0.6229800380616353, -0.629674929380791, -0.6507706489671801, -0.6401491144565178, -0.6097840492972406, -0.5993642753492878]",True,0.8000,0.6000,0.4000,0.1000,0.2000,0.0100,2.0000,True
40,go,Hit,1,0.2600,"[0.0, -4.206470837368401e-05, 0.006746826045617093, 0.0154009732252475, 0.050998606880413216, 0.054583614248977216, 0.04242519353072209, 0.04108260724565785, 0.043099159046509905, 0.008264233000291055, 0.021404620104032466, 0.02499246732880818, 0.04926701481085326, 0.07798531642227108, 0.07113758429841578, 0.09517550586343607, 0.10646343137903751]",False,0.8000,0.6000,0.4000,0.1000,0.2000,0.0100,2.0000,True
41,go,Hit,1,0.2300,"[0.0, -0.005002853123007571, 0.029624480246579717, 0.028046181248812502, 0.03388826294799048, 0.038080700504087725, 0.024790235697464264, 0.050822659069536986, 0.07412085251495332, 0.07983166092187016, 0.04316469989835067, 0.07815360022970422, 0.09429341406523878, 0.10323432808503481]",False,0.8000,0.6000,0.4000,0.1000,0.2000,0.0100,2.0000,True
42,go,Hit,1,0.2200,"[0.0, -0.02093306309936231, -0.01628409565283299, -0.028506356916238918, -0.004240189589394865, -0.013329415501583976, 0.017000108325748945, 0.03102207566710735, 0.038797735255889705, 0.03145546981353799, 0.07016861245082262, 0.09941986135932121, 0.13910493263968463]",False,0.8000,0.6000,0.4000,0.1000,0.2000,0.0100,2.0000,True
43,go,Hit,1,0.6700,"[0.0, 0.016821342682733387, -0.023454729789613354, -0.043071540152146856, -0.0353554968164774, -0.023759699669882374, -0.03960815934190497, -0.02117358466550935, -0.002541423931361919, -0.044359988544871665, -0.05074900843948617, -0.04322339572641818, -0.014393248787658658, -0.019028065798159275, -0.02023276658515641, -0.010175941668393316, -0.0114725991527209, -0.02629247391725338, -0.037280340898757244, -0.08247947355411148, -0.08195414192083529, -0.06315010758292908, -0.05079559955094655, -0.05109072187580939, -0.03883358280389519, -0.021654201975685676, -0.01889756894780762, -0.0039699409829451575, -0.023797071305430358, -0.010980190616241479, -0.02901054469532318, -0.018656495685574318, -0.049612299702958926, -0.07132296402724929, -0.08257024557844411, -0.0685504546151665, -0.0816428563318104, -0.08329775894938571, -0.07115396195211925, -0.08188045470478855, -0.06513314482645308, -0.021517890350444782, -0.048469164151180855, -0.028007360293481734, -0.00568188092793466, -0.016617918285556442, -0.06999060977660979, -0.034558069345030806, -0.019447065698804757, -0.00928218636466149, 0.0029928657410111387, -0.05322973802861949, -0.032219119757983555, -0.023064198425977477, -0.01606707476959543, 0.020630884152749676, 0.052970009492000925, 0.10632195077363038]",False,0.8000,0.6000,0.4000,0.1000,0.2000,0.0100,2.0000,True
44,go,Hit,1,0.5000,"[0.0, -0.004437902379712474, -0.020524237372397263, 0.02446510041745416, 0.015312968657023071, 0.0018378395250174644, 0.008924287620939053, -0.014575229089276984, -0.008406709538905922, 0.013718613068455069, 0.003886474534889911, 0.028903197932321004, 0.04244403542865981, 0.03599468650611982, 0.03957172860485678, 0.05598502585962173, 0.04348005204872716, 0.05706409929996411, 0.05591633050457798, 0.06749963987912411, 0.054465008690985736, 0.04300034388020542, 0.07088459043326621, 0.03980577966003498, 0.0425631051332646, 0.0345145902601557, 0.018745288435907573, 0.020709124409863673, 0.03314322253016888, 0.012600021419801159, -0.013326001281241711, -0.01965086461615814, 0.0041238589089808465, 0.05314882128809621, 0.060612609318946804, 0.0612345874730823, 0.0656726726181782, 0.08102135706522774, 0.07903881296137848, 0.05770192971072499, 0.10168338964573569]",False,0.8000,0.6000,0.4000,0.1000,0.2000,0.0100,2.0000,True
45,nogo,Correct Rejection,0,2.0000,"[0.0, 0.036343677691536166, 0.025981108920587484, -0.0033681565355328513, -0.045425661766226345, -0.0316203522557541, -0.048373051385483916, -0.09448607080396973, -0.11319665872212388, -0.10951370862662242, -0.14992426830526387, -0.16135092805039492, -0.1426390426129067, -0.14013944665870978, -0.1397329266690794, -0.17397393828323016, -0.15994256629669534, -0.17367627589515922, -0.19364164777555734, -0.17865288072036503, -0.17454751655645226, -0.17746062113234998, -0.15813578092342634, -0.14469388824157448, -0.10414510999567736, -0.08356388470136818, -0.07782708777457982, -0.045139012533293214, -0.05177803892141835, -0.02488994995362637, 0.012528977912153603, -0.02512413115144774, -0.02997376437821841, -0.03078135504600334, -0.02773160624511052, -0.0514891597109869, -0.049128874568475166, -0.03611877259381934, -0.05958076539919925, -0.058193641268777255, -0.045352492604268685, -0.014466717558198072, -0.007365538969104427, -0.023358118425269584, -0.013528251734310059, -0.019099000061549486, -0.005510990065346753, -0.01654843640858869, 0.018218107659719797, 0.03873095697100089, 0.029161873089143482, 0.00025183044502510854, -0.02206420615326052, -0.012153015906275214, -0.029487985758123995, -0.036855999115720045, -0.03997239603142498, -0.043920712897314196, -0.04528827415010834, -0.040800469868260206, -0.02840284591968722, -0.04440400888676739, -0.04634512780438886, -0.055813612214139524, -0.0671509254576518, -0.06258452566471912, -0.07135958799761885, -0.0453717627261534, -0.045251193246891946, -0.05662783654737592, -0.05087568815872584, -0.06316959225048188, -0.07929065000313897, -0.0694749410550288, -0.061633549068073196, -0.057149094353190176, -0.06851755570681534, -0.051182795128662986, -0.054309799817094696, -0.07536323480308305, -0.07399086630411232, -0.08484349964226054, -0.1258443782712334, -0.0905957038419995, -0.07862626289247704, -0.0809235275172914, -0.10610201106264425, -0.09747413032240736, -0.131218296427432, -0.14403716368742592, -0.1329771868929545, -0.13381394864534651, -0.1464927400176756, -0.145332829887428, -0.16210604656688915, -0.19666428574463662, -0.1841730753483007, -0.19727056686829558, -0.18048023851808903, -0.18930904545689844, -0.18602295859612591, -0.20036670558584868, -0.24494999136212814, -0.2263278518304833, -0.25747133753800444, -0.29326533525080783, -0.2931194345933936, -0.3079285899110302, -0.3253502335681817, -0.31936132579383025, -0.3102442565222634, -0.3199115288958705, -0.34008872003772633, -0.36656232090547136, -0.38092020311093167, -0.4035316634808183, -0.3819857473709436, -0.4301086246138301, -0.4656743323261404, -0.4995208406584918, -0.5180180515468413, -0.5168303329328112, -0.5009240237358382, -0.5433509568806179, -0.5051040603065564, -0.5201279162682451, -0.5268649784394884, -0.5318185783612864, -0.5580049915710182, -0.5833644781252731, -0.5788966680434572, -0.5696373657851342, -0.5606330305883623, -0.5770063481629268, -0.5956146699285578, -0.5727713673975166, -0.5579716612783387, -0.5819369315315683, -0.5744071699837356, -0.5837077340388249, -0.5589815907505351, -0.5627179541153797, -0.5792244146906734, -0.5760365720055368, -0.6146377884481249, -0.60052233063001, -0.5871805942035686, -0.5709575362058127, -0.5609141555467211, -0.5702808442908721, -0.5754815392671436, -0.5664251397047264, -0.5727382616994546, -0.5910466893641859, -0.5815995197357259, -0.5717480326483914, -0.5816464160780606, -0.6099288956825709, -0.5998567603052998, -0.6225872774449827, -0.6156657240096545, -0.6296237315363914, -0.6134689981244466, -0.6205560796244448, -0.6256866569125343, -0.6311044810079589, -0.6487100160966985, -0.6577101125720978, -0.6769845131466765, -0.6897929049765942, -0.7179760323956145, -0.737216254545608, -0.7457520591326855, -0.7647332614960064, -0.767249709350744, -0.7689106482743917, -0.767533824642813, -0.7872579880904828, -0.8056006671485197, -0.8234895817304517, -0.8252967723685932, -0.8414288279889255, -0.8416116719256869, -0.8382296921441209, -0.8875408674355341, -0.8686371573164152, -0.9100081617913591, -0.9252494605045587, -0.9191384687680813, -0.9374064102854321, -0.9702058656221685]",True,0.8000,0.6000,0.4000,0.1000,0.2000,0.0100,2.0000,True
46,go,Hit,1,0.2100,"[0.0, 0.009206602557471926, 0.04022916323565233, 0.04199055832767012, 0.05146494121305822, 0.05578818529434115, 0.07914754028736201, 0.08199329091155903, 0.0696365683090148, 0.08783219618842189, 0.09879756177394045, 0.10185975951485675]",False,0.8000,0.6000,0.4000,0.1000,0.2000,0.0100,2.0000,True
47,go,Hit,1,0.2400,"[0.0, -0.002143357656298101, 0.017493089409458755, 0.02877573609438277, 0.029244671829769864, 0.04671898678109764, 0.07750440706871095, 0.05297128321482297, 0.048947567277525056, 0.03852087536822062, 0.05107301987421878, 0.07707589434811453, 0.06457460487374846, 0.07413429134876204, 0.10000992308158269]",False,0.8000,0.6000,0.4000,0.1000,0.2000,0.0100,2.0000,True
48,nogo,Correct Rejection,0,2.0000,"[0.0, -0.0001095896934516262, 0.00026713598741275133, 0.01597547742232109, -0.00934789883849434, -0.060265347437204575, -0.04960866113930319, -0.06211433022584764, -0.05941713112109911, -0.07961509247538054, -0.04367491121954016, -0.04818845505192169, -0.059936560562924124, -0.09489900914586602, -0.09185107337418828, -0.11986895059015432, -0.09153121210248868, -0.12055216754389553, -0.10768788630262692, -0.12154087876697019, -0.11378424592045343, -0.10530500086358477, -0.1365611732321801, -0.10983799102863086, -0.11964487547606709, -0.12321516747865727, -0.14236459690344253, -0.1667273599979825, -0.19772738106195806, -0.21170912211737763, -0.2118852770951579, -0.1862940721319338, -0.186282425437998, -0.20311511967128906, -0.20951701141291665, -0.23085310597045822, -0.2036178959722442, -0.1772342666423212, -0.17077245198663923, -0.18189186303454657, -0.1868681707978562, -0.15198725493383816, -0.1187886678203876, -0.1689563042550732, -0.15373101362810968, -0.16977999342572664, -0.16931231084214343, -0.15226915422318346, -0.13595682967261702, -0.12317740926924502, -0.11428088869863406, -0.15128252014429114, -0.16356241535646704, -0.18580611436794514, -0.188321563445538, -0.19316165241862113, -0.22412055783197188, -0.2500754116541222, -0.2539770336124782, -0.2485174879996614, -0.23849704494475338, -0.24763885125874785, -0.26735085253562074, -0.24855563618302257, -0.2631991675895723, -0.2594122774785094, -0.25933894359156007, -0.24841768801043917, -0.22857505272078998, -0.2519735008014048, -0.2540033812816591, -0.25193067700074484, -0.25378729419594626, -0.2574055023093294, -0.23777755227535743, -0.2476191566632347, -0.2446299360610742, -0.21789426609085963, -0.21013062006979932, -0.2286077509411421, -0.26126487233482687, -0.2731712543581156, -0.26962888190384227, -0.26125109210700076, -0.27788904598178926, -0.27608667086490857, -0.30133909074984333, -0.2672267370383349, -0.2939807171488326, -0.3477095762466428, -0.35615057332455463, -0.36058763490703327, -0.35886908503901965, -0.39328057680167383, -0.4206130943349687, -0.43390922420695727, -0.4261188833455504, -0.4336931479302752, -0.44360379222563884, -0.4391545540304969, -0.42489852178573606, -0.4413148642007583, -0.44362565537420445, -0.4424311113721147, -0.43548468374306615, -0.42207089358683103, -0.422867532215518, -0.41851219557981206, -0.3985778218652098, -0.39927188177552275, -0.377771373156404, -0.41539344686781327, -0.40952273756273133, -0.4191085464556321, -0.4255162867980015, -0.43524537260680984, -0.47278483190778503, -0.4635921346572478, -0.4693774481349417, -0.49709022285702004, -0.5230901600509913, -0.5312753498669618, -0.5043660781332255, -0.524467171089003, -0.5397579981049284, -0.5353158822609142, -0.5569239065885797, -0.5310713105456595, -0.519040397224027, -0.5182369670804869, -0.5049571168327853, -0.5303752954508335, -0.5397138080138416, -0.5697987582061291, -0.577121736441471, -0.5648298342997011, -0.6030057253593001, -0.6372143923732703, -0.6399656722741011, -0.6614886617999837, -0.6618793398563314, -0.6507683524996566, -0.6672277750537433, -0.6682092191764483, -0.6784499006188578, -0.7125952721979225, -0.7243954433902718, -0.713581894643422, -0.7039527123370225, -0.6945696013151649, -0.7528652271502743, -0.7020423630620074, -0.7237215917451375, -0.7357344756417966, -0.7647551475807851, -0.7580182800701858, -0.7805044906217535, -0.8044611302941116, -0.7696673060190677, -0.7581301617115427, -0.7543478649351785, -0.7573857064250518, -0.7666397844143634, -0.7670553193390142, -0.7972971561384603, -0.8296759126322515, -0.8679279435716685, -0.9177605043284596, -0.9461374766295733, -0.9334512144590743, -0.9500908010307272, -0.9646516067280841, -0.99827823108798, -1.0413999734938566, -1.046927830569036, -1.0318046126842697, -1.0549435400687324, -1.0428064021034658, -1.065771371467438, -1.054762370458811, -1.0913416013795134, -1.105697195138329, -1.144707266230575, -1.1632226884689538, -1.1580089253794983, -1.146897141729725, -1.1390300315629673, -1.1187374211176782, -1.1238621329922314, -1.1429694437846278, -1.154740031904318]",True,0.8000,0.6000,0.4000,0.1000,0.2000,0.0100,2.0000,True
49,go,Hit,1,0.1800,"[0.0, 0.011319373148020449, 0.02450263204159356, 0.025198691403779862, 0.03343856445106798, 0.06651549475542637, 0.05721323015598076, 0.08148155029847726, 0.12390665093419162]",False,0.8000,0.6000,0.4000,0.1000,0.2000,0.0100,2.0000,True
50,go,Hit,1,0.2500,"[0.0, 0.01292908572698396, 0.012137086613973192, 0.018715262384344813, 0.013637827724620197, 0.028861854172006603, 0.04774876877889414, 0.07102888749621379, 0.0522578932186123, 0.07215387436514804, 0.049326787772147385, 0.04678935686850967, 0.050980259482924395, 0.06018461846922226, 0.08047475424131124, 0.11400626300500387]",False,0.8000,0.6000,0.4000,0.1000,0.2000,0.0100,2.0000,True
51,nogo,Correct Rejection,0,2.0000,"[0.0, -0.01502228192192441, -0.05705161887497984, -0.04265959408748842, -0.09337704461960425, -0.08871918443363615, -0.0862136557631348, -0.10673071989040554, -0.11727772097079892, -0.09938632768302716, -0.15743624500888326, -0.1289467181093183, -0.13343495451529386, -0.14921442350551428, -0.14077215695586026, -0.22220928886106867, -0.21720874705784404, -0.20707916300994783, -0.2453590874962459, -0.26850248995345927, -0.2624166402775533, -0.2553525642831453, -0.27346911603681695, -0.2576782246616531, -0.2609794205697637, -0.25727108811203786, -0.2648175784359154, -0.24003962534867138, -0.23752816284396028, -0.22911266248834308, -0.23455506175833069, -0.2457307517421625, -0.24083753388768075, -0.22979076600335674, -0.2209401592415495, -0.2525056361129592, -0.2694762435906094, -0.28750408106058417, -0.30315869964751163, -0.3021632802067691, -0.3325983298197153, -0.3387681283986027, -0.3574841632307581, -0.37612621069152546, -0.3990805355925083, -0.424008119646065, -0.4289681191553249, -0.4633183347272795, -0.46464596167629724, -0.4633089912551309, -0.49485945740472803, -0.5041417989937607, -0.5070528936299321, -0.5133839137553253, -0.4978967541384894, -0.5100785898780573, -0.4991502293161903, -0.4766087047941182, -0.4904808952740839, -0.5176373769734477, -0.5409142660576683, -0.5645715206509704, -0.5224500240364595, -0.5164693484672169, -0.5541471908221103, -0.568945576907569, -0.5697863206569154, -0.5520838088739117, -0.5350874900425985, -0.6088537287478148, -0.6146170407835759, -0.605907266023122, -0.6093045241357571, -0.6235804624348708, -0.6419070024644339, -0.6708651407814025, -0.6542601701252537, -0.6950834524102403, -0.7242169988376506, -0.7306584572286482, -0.7578596377533137, -0.7959359922766872, -0.7847671248812546, -0.7963057059736758, -0.8054712243283618, -0.8402269131096589, -0.8137399085443677, -0.8232155755827169, -0.8345289171912892, -0.8776324797471476, -0.8869624184399788, -0.8593545557293223, -0.86200599581878, -0.9028888019849916, -0.8990820279504023, -0.887809927325109, -0.9203444074774156, -0.9525535952777254, -0.9431070909254453, -0.9231389102043674, -0.9437790993061096, -0.9298690997507707, -0.9326334272087773, -0.9255109798622714, -0.9195499862955219, -0.9105932798229543, -0.9326550799805309, -0.9432456588003783, -0.9498194303616891, -0.9046293015356721, -0.8864626876755124, -0.8654600168158563, -0.8903285031481879, -0.8876659595527916, -0.9026963439235803, -0.8912248030879645, -0.8959928204798782, -0.8888415447776649, -0.8805519851075037, -0.8724486799679892, -0.8877656275972836, -0.8772955584851766, -0.8518014509985116, -0.8388087675197207, -0.8698055406155787, -0.8519104796471604, -0.8525098930738576, -0.8322452419543771, -0.8676999964767731, -0.8443232500521216, -0.8640639240947706, -0.8242327146622077, -0.82139463880616, -0.8135821895730164, -0.8141969514564252, -0.8182984027456551, -0.8236803649762703, -0.8438096586561846, -0.7815771572530528, -0.8012232329991826, -0.7960296384269796, -0.7945930756047417, -0.8118458492343901, -0.8326528329094658, -0.8514264216478473, -0.856982654483112, -0.8736304754713039, -0.8896931357805166, -0.9184684493384304, -0.9494796038613464, -0.9639838463366653, -0.9829427206476994, -1.0056338626203445, -1.0123383439064915, -1.036932387525167, -1.0306423207914939, -1.0348438486597014, -1.0579738309358595, -1.0564406202682113, -1.0747657377347963, -1.1209996626248488, -1.1254826950929708, -1.1247454939926493, -1.1386809496933257, -1.1235512657371391, -1.1259702156901858, -1.1249003876074792, -1.1188936400532046, -1.1480521580326686, -1.1858018238341625, -1.2047920392132248, -1.2284721459608936, -1.2184159621053672, -1.2206506176562157, -1.2491494301642936, -1.2654858753035316, -1.2577494320634153, -1.2683181770574266, -1.3057571503821517, -1.2894827910390245, -1.2818976262236557, -1.2773115493730052, -1.2811038376821968, -1.286764714321569, -1.296088541096439, -1.2930677760985758, -1.268369071133984, -1.2818873433474904, -1.277860273961954, -1.2982066110098993, -1.30200293999584]",True,0.8000,0.6000,0.4000,0.1000,0.2000,0.0100,2.0000,True
52,nogo,Correct Rejection,0,2.0000,"[0.0, -0.006228504329963632, -0.043310039402154, -0.06090949323353935, -0.034348265435454814, -0.04093955802193843, -0.07577311280441215, -0.08167411007969884, -0.12988780148240808, -0.163587756083731, -0.16338486834020463, -0.19618133975473323, -0.19043935137435908, -0.15931272594693452, -0.16780944332466557, -0.19450090789419217, -0.19252533201478103, -0.14145969863537955, -0.1521766745922119, -0.14431583088221397, -0.12740438785346014, -0.07015042763119131, -0.10149641137260651, -0.11501435974508888, -0.09375718135279304, -0.12438251778930971, -0.11354417940991285, -0.09534724899167638, -0.11027204971697269, -0.09255504442733037, -0.09200496922979998, -0.10449639799519966, -0.09910168276923352, -0.0827695105390578, -0.0686267263272336, -0.0744084620632248, -0.08429668208033145, -0.09131707014719186, -0.09159957287613414, -0.07870079951613847, -0.08327022981454167, -0.0838211741507531, -0.07274440520917881, -0.08146409076923958, -0.0986797079998305, -0.10601955641730577, -0.12041453232164087, -0.13600503064226369, -0.15891581874005709, -0.17960077701777322, -0.2041182615275278, -0.22115743449990347, -0.24530196852620206, -0.2729602282068279, -0.2952889467119557, -0.2795506959772867, -0.27740279437635507, -0.30030625729980465, -0.3063300140610476, -0.30119276977095005, -0.31089058556435334, -0.3293863089467184, -0.3314438050180343, -0.3263325577139356, -0.3386522689218384, -0.3565663838325664, -0.3621799879258341, -0.3818519411695818, -0.3941129073535053, -0.4147277655374182, -0.44435864989900614, -0.45200589826254695, -0.5010223907813233, -0.524250017069188, -0.5059473025545855, -0.506791125685164, -0.5110993834901021, -0.5280830065943776, -0.5798983877843373, -0.581940317566482, -0.6024998749578541, -0.6217295216328866, -0.6190050738299585, -0.6312403734666319, -0.648696144562219, -0.6450598065111594, -0.6401314408036909, -0.6515922078939519, -0.6422284031594606, -0.6602774484555335, -0.6277108314539378, -0.6385631931763751, -0.6659070939258324, -0.6570766066758804, -0.6936416850301076, -0.705740837365929, -0.7134722083647899, -0.7229395061740451, -0.7255193361027006, -0.7556063022256241, -0.7423953166780748, -0.7506293392514748, -0.771989831322397, -0.7840719999384176, -0.8000468628396942, -0.8259899858321059, -0.8203780250454268, -0.8323968788418878, -0.7943096330201868, -0.7783037119763786, -0.7957724876029381, -0.7625766791083436, -0.7468345727411915, -0.7356701233436768, -0.7575137529359679, -0.7562572329491285, -0.7419412322134025, -0.7312866307466901, -0.7329994614342543, -0.7187359061226808, -0.7294614271423766, -0.748725596730051, -0.709054104463962, -0.7181905028510245, -0.7053554110281469, -0.7008770440471185, -0.7252617836242755, -0.7606844559715938, -0.7768995498411227, -0.7803438991405641, -0.7459011321142455, -0.7561226849514502, -0.7485816477248399, -0.750474945963486, -0.7584428469092702, -0.7766744545001827, -0.777745050608249, -0.779799854632923, -0.8187694874100275, -0.8233042903755284, -0.8093922973862363, -0.8570357424501137, -0.8810338022870365, -0.8822239650136412, -0.8870339863369936, -0.911064306551575, -0.9112865861380122, -0.9224974219995354, -0.9173038506071926, -0.9168788715490515, -0.9528672415576472, -0.9474781618585328, -0.9757168392193419, -0.9634431047928252, -0.948270881270027, -0.9794523617704103, -0.9637758548813772, -0.9709648707084275, -1.0037866531837616, -1.0086530322089853, -1.041457062600408, -1.0365628892829641, -1.0133604163162067, -1.0142953059761535, -1.0241143214211623, -1.0013754978011224, -1.0221253322605834, -1.0226366273424723, -1.0430905964066404, -1.0386693041219257, -1.0488444146016147, -1.054858571210409, -1.0614902249500395, -1.0499302572241822, -1.0520802282852735, -1.045474039343019, -1.0620873965853295, -1.0725275223470665, -1.0821516750262181, -1.0860923343540991, -1.1026585246005187, -1.1219769793780348, -1.1000998581442611, -1.093598433080207, -1.0964197477836026, -1.1022809906798405, -1.065351473476667, -1.0761232889600156, -1.0906010306255833, -1.0759982468138944, -1.0947527107738022]",True,0.8000,0.6000,0.4000,0.1000,0.2000,0.0100,2.0000,True
53,go,Hit,1,0.1500,"[0.0, 0.004227471501624223, 0.012452497943820357, 0.0778552573762192, 0.09312570894047677, 0.10458429502394356]",False,0.8000,0.6000,0.4000,0.1000,0.2000,0.0100,2.0000,True
54,go,Hit,1,0.2000,"[0.0, 0.022366474242362128, 0.05188425528463328, 0.043102640554461766, 0.053027417645341635, 0.05777988606347631, 0.0724376602794086, 0.07395733748150382, 0.08682649068315473, 0.08971422036785043, 0.10326414582060454]",False,0.8000,0.6000,0.4000,0.1000,0.2000,0.0100,2.0000,True
55,go,Hit,1,0.1800,"[0.0, -0.007628929273180533, 0.021717309725920148, 0.03103808115735789, 0.057975289027556234, 0.058626082354572555, 0.05698116208454901, 0.08941833894907178, 0.11226545903439686]",False,0.8000,0.6000,0.4000,0.1000,0.2000,0.0100,2.0000,True
56,go,Hit,1,0.1600,"[0.0, 0.0074192253023748, 0.03746920951726136, 0.040370813313275605, 0.06803077935905968, 0.0848636234218785, 0.1079937145343379]",False,0.8000,0.6000,0.4000,0.1000,0.2000,0.0100,2.0000,True
57,nogo,Correct Rejection,0,2.0000,"[0.0, -0.008946388653097413, -0.030465132643988996, -0.06582678566884903, -0.07018623753876721, -0.06572676758426561, -0.11585034508614606, -0.1357435004102491, -0.16278927932204845, -0.1681915257086199, -0.16301947150382703, -0.12129074392308822, -0.11711870712239265, -0.1165314346025807, -0.10714393654779185, -0.10670515025934407, -0.08974761200186424, -0.11204690847534396, -0.10926090571277979, -0.0748349079449453, -0.08657452071952819, -0.11308589656860188, -0.1173394288160678, -0.11349569211362862, -0.1381866660954155, -0.12764972376202904, -0.11696373548193621, -0.12029888629601967, -0.1405530300507214, -0.11581143257637559, -0.10893354880208655, -0.11107692154726659, -0.11592074817623821, -0.1239329994636519, -0.1425408586983418, -0.1451655957793746, -0.13153302844506515, -0.13075182693564952, -0.1443649570943961, -0.11899170010687893, -0.09972721290041162, -0.12367200552583334, -0.1490052621065291, -0.12889681482768617, -0.13321049097157925, -0.11679174801540974, -0.09048572811663684, -0.1443878022484139, -0.1717018930161895, -0.14120061296554123, -0.15578124410860592, -0.13092746861667132, -0.14883836259582897, -0.13222949345072965, -0.1273759815166261, -0.14067017162640713, -0.17635036964072415, -0.173393604793807, -0.17783087994215657, -0.20528184290695808, -0.20397286136451406, -0.20347060138422474, -0.2024666839768667, -0.2204620068451786, -0.21039142489710225, -0.24272173040223946, -0.2367303879147597, -0.2327136179209276, -0.26777039360873656, -0.2778094771306475, -0.2791040079027052, -0.26646939762113075, -0.3114071553409845, -0.32112957424710176, -0.3148036784647416, -0.32037788096572506, -0.31607920656848665, -0.3131189122107741, -0.34594314217554867, -0.3856144435206593, -0.3726904769321424, -0.3766619889089813, -0.36178596891518866, -0.36904120951846325, -0.3711929230715089, -0.37989580312895577, -0.38480454424446564, -0.36906551387279063, -0.3557108821298863, -0.3384003375876991, -0.313111290120562, -0.3165310232868686, -0.333704007178019, -0.32059039233463055, -0.3314199983573872, -0.32622269969590906, -0.36181582960611414, -0.3617146844898976, -0.36914497937495666, -0.3745323572614738, -0.3995116824818816, -0.37012785715896224, -0.364929090315182, -0.3790164416933811, -0.39634996547938806, -0.3674166788687776, -0.36294870017070435, -0.3512681602723782, -0.33509890518057756, -0.34026534451559026, -0.3301634605245686, -0.34214048870140856, -0.3208854200791801, -0.31787251703320996, -0.32278621911051386, -0.31691780621690874, -0.31794433784857457, -0.35612785614083214, -0.3569919601405425, -0.32900109913345776, -0.3244458130662446, -0.3101158298196114, -0.3262856261855127, -0.354236539907158, -0.34858844477122974, -0.3138904333328462, -0.3121366338759796, -0.3127797430754956, -0.30453581930430906, -0.3299591895211426, -0.36278278799433855, -0.35526816584703635, -0.3669927197826119, -0.380636108255017, -0.38723386050569125, -0.44696318036751953, -0.4177079648897061, -0.4060986152542381, -0.4115408515443502, -0.4154930498100951, -0.4289922513043087, -0.40210182253209664, -0.4311344456539875, -0.45134273397948355, -0.4638627248702303, -0.44494821060133277, -0.4856913423185248, -0.45462096818233616, -0.4448471236186262, -0.4436969524404476, -0.4625673858265922, -0.4662280506697782, -0.48358133077022425, -0.4625509696314992, -0.4750024921349083, -0.4681258918978724, -0.4807794935964508, -0.4371686991240788, -0.4336385675190442, -0.4288832036737951, -0.4111989455977413, -0.4497513881186493, -0.44772307119947896, -0.433136750058883, -0.4654102507088757, -0.4856718144895251, -0.5078511349411319, -0.495152461060828, -0.5184348391276946, -0.5378856374526343, -0.5529124742468885, -0.5672449617271862, -0.5895038710357597, -0.6140832343339931, -0.5955615887070763, -0.5741835460018733, -0.5514963857214775, -0.5923609503323107, -0.5827430165215004, -0.5891736164680601, -0.5877610963799569, -0.6098737333676115, -0.6019937263738891, -0.6182305251960012, -0.5975439698286624, -0.5926179491536273, -0.5937434816882795, -0.5813231702386477, -0.600727062004211, -0.5835537818776744, -0.5466476752227786]",True,0.8000,0.6000,0.4000,0.1000,0.2000,0.0100,2.0000,True
58,nogo,Correct Rejection,0,2.0000,"[0.0, 0.036541574663854604, 0.012487533362872831, 0.0025875537718497987, -0.030574876916490343, -0.039586835099484505, -0.08391037013258468, -0.10655616327996861, -0.07737253878195126, -0.11116289597882614, -0.15471272766937788, -0.1786929083572941, -0.1788545724601065, -0.1679774677566181, -0.18332690556475514, -0.1995403432152045, -0.21598378339654278, -0.19997796939582835, -0.19474679618369334, -0.19608572244578423, -0.2310897965191969, -0.22793057086670737, -0.21649198976292222, -0.2140069227543045, -0.21527824308874965, -0.20227521532035728, -0.243819931323836, -0.2604173452964177, -0.25088077754955773, -0.20025884400545807, -0.21151173046198987, -0.2100714151224466, -0.21546335986135168, -0.21394999678354398, -0.22294765067620684, -0.2693083424410138, -0.2724843353562355, -0.25153552763909587, -0.25310494374899284, -0.23917412380387526, -0.2528146278639649, -0.2661474963811433, -0.2743635454069113, -0.28863012233686625, -0.27155525891834564, -0.28972177214196276, -0.28745288225461596, -0.2968136329930659, -0.30438097111703705, -0.2997061388554699, -0.32385768878533516, -0.3346639416854414, -0.2973002499575813, -0.3320913595851066, -0.3525744255545288, -0.35660457110535076, -0.36300259632465215, -0.338818369455688, -0.3164576630329179, -0.36589045747524385, -0.37479879987617826, -0.38380064591868185, -0.3699486061612524, -0.3694288603211969, -0.3931270240948471, -0.3933639817292473, -0.3643641684900477, -0.39580505103803765, -0.4143907024233076, -0.4320287921770036, -0.4337989130906411, -0.4390972466717303, -0.4275165166145959, -0.4156279250865272, -0.41946244526529636, -0.39600394284105506, -0.36955350309170837, -0.38238882572448996, -0.3743095931541434, -0.3728251157654707, -0.38964897892303907, -0.4114292406519149, -0.3881768282506708, -0.3589785874368049, -0.3677355424908305, -0.3851594500608998, -0.37704786684558905, -0.38607807517451376, -0.402139519689856, -0.4034029555697437, -0.425861411778669, -0.43301082084464365, -0.4661566521719929, -0.45372058488446215, -0.4924840157488772, -0.4980675653132374, -0.48933118888608984, -0.4891350172310819, -0.5192157345115026, -0.5538842962631376, -0.5576896134234308, -0.5691380193276078, -0.615532253942519, -0.6352116813431036, -0.6258937459437864, -0.644408300793488, -0.6369382608783074, -0.6468082456051419, -0.6460134945184609, -0.6466706906241734, -0.6578879822412069, -0.6522663200424585, -0.6650943866900341, -0.696870750553657, -0.6797208812201637, -0.6705227557140738, -0.6931547877683886, -0.685383891976955, -0.6617704100204697, -0.630931186407765, -0.6748361687903027, -0.6919992966887416, -0.6570482625759525, -0.643465080582802, -0.6380239604525194, -0.644601956516208, -0.6423806747412187, -0.6388939666059011, -0.6685285980252984, -0.6779619541166488, -0.6948225028116833, -0.6989551930544906, -0.6844650204067472, -0.6732050473568717, -0.6711997491172258, -0.6661757792812529, -0.6706472969097428, -0.6723176173920878, -0.6863938430526496, -0.6489091713171642, -0.64414729560388, -0.6907146969804207, -0.7047653351945983, -0.6787988442673747, -0.6836587609031504, -0.7083300227826399, -0.7166690924547889, -0.7211368167848522, -0.7469995247010618, -0.7339888303464086, -0.7216893770714619, -0.7521595847572144, -0.7454063104862817, -0.7554981259406506, -0.7481780161200942, -0.7707726691150163, -0.7617838916277399, -0.7443427701775126, -0.7527937710879123, -0.7859782924337221, -0.8033065996232865, -0.8051594288939775, -0.7990558294233515, -0.7926937461010238, -0.8170594262268435, -0.8151864134212952, -0.7971813871904405, -0.8257494556295503, -0.8447028622374189, -0.8303821903982858, -0.8198557385947989, -0.833184446048781, -0.832567942854947, -0.8155776601332553, -0.8358792986344551, -0.8383143084423533, -0.8409008108982725, -0.8751528154308325, -0.8806166039466045, -0.9111996466984397, -0.9130155207064334, -0.8951128089263626, -0.8822675435512752, -0.8755678103229665, -0.8894705337898207, -0.8535877241628028, -0.8499299471998659, -0.7941512059981158, -0.818691007326285, -0.8486895478263826, -0.854977840114378]",True,0.8000,0.6000,0.4000,0.1000,0.2000,0.0100,2.0000,True
59,go,Hit,1,0.2300,"[0.0, -0.004759162127127715, 0.0002670913375882218, 0.016966511512440493, 0.03454156716782862, 0.044721865399291114, 0.0850690159829054, 0.07573281516482869, 0.05713352929742723, 0.08993903013756091, 0.057789723823437326, 0.06959988376641654, 0.08484110626964016, 0.11272278947378905]",False,0.8000,0.6000,0.4000,0.1000,0.2000,0.0100,2.0000,True
60,go,Hit,1,0.2300,"[0.0, 0.040454113208251374, 0.036983541965593114, 0.03954080153879149, 0.021077503337836413, -0.0030995887355702474, 0.003971190696716668, 0.0234381411516097, 0.055216282896998474, 0.05646283474815948, 0.05181726725034555, 0.0704691478762335, 0.06327240494557483, 0.1088955234268141]",False,0.8000,0.6000,0.4000,0.1000,0.2000,0.0100,2.0000,True
61,go,Hit,1,0.2600,"[0.0, 0.025925772188843108, 0.02177458584095704, 0.01739900547781635, -0.0004458607958224489, 0.009835596063538048, -0.019121188716098355, -0.014409745880985056, 0.014722479524626434, 0.01669019826977845, 0.037191379012254194, 0.052253481585368765, 0.0724452380051108, 0.05660689615927669, 0.08644859647318905, 0.0996172631938494, 0.117732630630986]",False,0.8000,0.6000,0.4000,0.1000,0.2000,0.0100,2.0000,True
62,go,Hit,1,0.5900,"[0.0, 0.0002801058776492728, 0.01922164907284529, 0.032505376608074135, 0.023855777972369888, 0.0040265769870483255, 0.02004183711564301, -0.005272844806198149, -0.019276108482385566, -0.004883666793731707, 0.006439498742304234, 0.026397405476639685, -0.0055314255641986665, 0.022481164712617865, 0.017580218949311395, -0.003161309005152182, 0.0012514460433187442, -0.006574374401041937, -0.01668127533011356, -0.04635868919556475, -0.02867629087573801, -0.010696870990018231, -0.020128853659035897, 0.009415717440812623, 0.023600987067092533, 0.002949292403223728, -0.004691196388841235, 0.0003147605006647361, 0.00589287484340646, -0.033999526293598877, -0.0545635226452927, -0.057032235323279605, -0.08922789473670031, -0.12371559734758293, -0.11745368183498055, -0.07804540543468311, -0.05634315720829636, -0.04718827617782176, -0.016097207352897276, -0.02184910598247016, 0.016692515584307795, 0.020836378521236973, 0.019034367946548163, 0.02351308435064728, 0.04294857834298278, 0.06808072953166212, 0.09734629907028933, 0.09282859233863057, 0.08538663962114498, 0.11020449197367556]",False,0.8000,0.6000,0.4000,0.1000,0.2000,0.0100,2.0000,True
63,go,Hit,1,0.3500,"[0.0, 0.005785582982103158, 0.0004931695174197996, -0.015738664524182423, -0.005047437248390112, 0.018102349550258554, 0.02655907831591913, 0.023904167544454805, 0.03126376311397596, 0.02474569238320358, 0.006665527291385625, -0.0014480406362512958, 0.0074549177268315465, -0.031276077403486535, -0.0003697583956285763, -0.05032684121055105, -0.056136800408033635, -0.05832675025733557, -0.05217860849123255, -0.024859060492068197, -0.010092337123751651, -0.0026322793786175127, 0.008511777890244838, 0.014559570565058721, 0.08709247341337753, 0.12380240449843583]",False,0.8000,0.6000,0.4000,0.1000,0.2000,0.0100,2.0000,True
64,nogo,Correct Rejection,0,2.0000,"[0.0, -0.012201623671921364, 0.003901240547126719, -0.008044605448249465, -0.05006357805505962, -0.028570951871870982, -0.0409073404529094, -0.057396720510340754, -0.062291316983690795, -0.0752234117727755, -0.04663158449224135, -0.04937844697707566, -0.016216237282303175, 0.003441049549412191, -0.002048037670573423, -0.01945625015674945, -0.019851973807614293, -0.037219075082347175, -0.06720753007188626, -0.05625853043590023, -0.08573508565451621, -0.05391846347259447, -0.09530575344579126, -0.10128320705522072, -0.11725347348932305, -0.11458891870658393, -0.11181225617709556, -0.10312528532467165, -0.056484924447714836, -0.056372961947080226, -0.07485604337894962, -0.10463873302634509, -0.11394421600181365, -0.11217054525127315, -0.10913779873642873, -0.1107645547910283, -0.14953075392669044, -0.1480440079975363, -0.14783162420263601, -0.1341881604804525, -0.16317735148252438, -0.17535269304306048, -0.16043392398611284, -0.1228246627002105, -0.12842126439239482, -0.11127802276541726, -0.1284660939941692, -0.10298035823004743, -0.1288209850845887, -0.12828593778301864, -0.14511288229181188, -0.1321497180169681, -0.11729708351445717, -0.09908314445489469, -0.11672147988483883, -0.15014061918130114, -0.16133226530051775, -0.13376066796798844, -0.15475468880485896, -0.1411125697033348, -0.15205972756146127, -0.13809735678897428, -0.1478701478033261, -0.14568786543893042, -0.16476833327593945, -0.15638704232445555, -0.1339375191304782, -0.053431706659570796, -0.06671151023444911, -0.06490768142782709, -0.07692549911378477, -0.10105697296944277, -0.052886911247699335, -0.03256065318855869, -0.0701901787755676, -0.1123081957353895, -0.09269172113824686, -0.07480089534060202, -0.09296071640810048, -0.08550500058710885, -0.08086354015263883, -0.09581664441076851, -0.07308961518102063, -0.0656292163576457, -0.06213993889293503, -0.0955901421356993, -0.07851895290134715, -0.10134173542927984, -0.1039603027341622, -0.09435257040187783, -0.09115722171535426, -0.05033002371214619, -0.06488770901086799, -0.03416568803105634, -0.031091627390224846, -0.04201542065996407, -0.038719113639251554, -0.022800016712242528, -0.021301162004836977, -0.03214086537498506, -0.050950760397219394, -0.0714510521212684, -0.07761414470966235, -0.10408675896248464, -0.12334214622188075, -0.1235983044504994, -0.12134928691310959, -0.12656383656278822, -0.15826377914025652, -0.17626610128487397, -0.15191174853368755, -0.13597106538199813, -0.13803507611496268, -0.10686115633310532, -0.13209614305921918, -0.13259073614606268, -0.14481944122386806, -0.16692830901214142, -0.20036468678157088, -0.2276079182047777, -0.23414289980142058, -0.20161764233632662, -0.18856605934895232, -0.18382141489602316, -0.19692935906280257, -0.22047648848913162, -0.24756770659696176, -0.24361749251622003, -0.23910072989843983, -0.24515483211825775, -0.2594581260498321, -0.2381211414872183, -0.2544885423933185, -0.2802266808504423, -0.26455168170409044, -0.2906430204994253, -0.3109197164371732, -0.3076507182330585, -0.36079367738649015, -0.34961757331661986, -0.35980719761633906, -0.3405994313360868, -0.3459226916533598, -0.38418828666926974, -0.3754208317294573, -0.33826750975090625, -0.3358173334223635, -0.37038053734958476, -0.38694719129950844, -0.38688378447241795, -0.405719620958366, -0.4281116162761612, -0.43053641003226906, -0.44013256277640117, -0.4462758314327031, -0.43561180456214077, -0.42695135634188963, -0.438814066834279, -0.4502341238287896, -0.47205359893585624, -0.48946689540843963, -0.48946438649662616, -0.5072740572252975, -0.5308514745615914, -0.5454381096644733, -0.5165956157738326, -0.5019901253117239, -0.45826643586375937, -0.45066468534398, -0.4386676225457566, -0.4295779051652897, -0.435130055368506, -0.4738043670254931, -0.46691849072020475, -0.43873373220733525, -0.4513111151397691, -0.4316793132373447, -0.4478473954994199, -0.44241811399554454, -0.47123742798758306, -0.44606456114633386, -0.4541924001591568, -0.44594031976791604, -0.47839972965622707, -0.492665375720914, -0.49713519537747125, -0.542392035181445, -0.564597180898822, -0.5814271826618307, -0.581384703737375, -0.6002217600442714]",True,0.8000,0.6000,0.4000,0.1000,0.2000,0.0100,2.0000,True
65,nogo,Correct Rejection,0,2.0000,"[0.0, -0.006897114198305421, -0.0013091485383646805, -0.01746976626993165, -0.028675159683175133, -0.04987727702078455, -0.03162594563971485, -0.056461856666120844, -0.09403045788233141, -0.12549414924338625, -0.14991702695576745, -0.17947452714433051, -0.1954202160876175, -0.23942032249948783, -0.2503314013096892, -0.27328964747280715, -0.27876995030316054, -0.2778440617665684, -0.30343531265788964, -0.3027640171342333, -0.3083290260267167, -0.30074447522459763, -0.2999942503094775, -0.31598395691091463, -0.3169063844127104, -0.3301368060229713, -0.3403158135845787, -0.3039461263439367, -0.32547154876507445, -0.3355642534288864, -0.32640252058873065, -0.34970790944831465, -0.3111221493816676, -0.31296372784085097, -0.33545763001810613, -0.3146098091874284, -0.294341856667771, -0.3220145910252274, -0.3499466463452352, -0.36117576926825073, -0.34175669778764733, -0.35141667006426197, -0.40177608705400253, -0.41934609517382565, -0.4347661921328714, -0.4197611264265515, -0.45139926020074955, -0.47097292100429705, -0.4667985795113955, -0.43583059130121177, -0.42272656943880127, -0.40668245255359053, -0.4579707482944458, -0.4679108249477542, -0.47199443581312517, -0.468218732137484, -0.49846625680926, -0.49020935806216054, -0.4884716097434792, -0.507440847181839, -0.4931475430152468, -0.5059629432971721, -0.5315125207533935, -0.5447618127252691, -0.5516068790680821, -0.5616998303641503, -0.5798919854851498, -0.6086774116423441, -0.5847068297130578, -0.5736382025581636, -0.5329191796634767, -0.5241572614817682, -0.5221300351972682, -0.528325408222929, -0.5662286026515969, -0.5584476078193501, -0.5929258701047757, -0.5986335951908384, -0.5968348359252926, -0.6083471109479183, -0.6306250082379095, -0.6665074387074025, -0.6900261391270326, -0.6836874229695721, -0.6965743899048992, -0.671791434105868, -0.663101217272022, -0.6892571309351238, -0.6924397919664114, -0.7241666661527025, -0.7089077890613942, -0.726012062403153, -0.7135268262565053, -0.716798951210567, -0.719185601844926, -0.707897794596811, -0.7689148260304989, -0.7621807520282429, -0.7924214429447703, -0.8096723336139966, -0.835857636381481, -0.8177124247025802, -0.8001828928446612, -0.8227913528357602, -0.8136446375161258, -0.8035022956491554, -0.7742790157540306, -0.7688977909115889, -0.799289011131633, -0.7939956289008745, -0.851671582851293, -0.8389332753782501, -0.8657247060431231, -0.8791304639449847, -0.9270722041567055, -0.9367023995072791, -0.9317661786013394, -0.9329273262060616, -0.9658154781806719, -0.955217282137217, -1.0097304831118266, -1.0352854746490832, -1.033177059732689, -1.0087005677949183, -1.004082885165037, -1.0250305786225633, -1.0329061423903414, -1.0524580886940595, -1.0278893329256602, -1.0560749387593011, -1.0813633629646608, -1.1091617719236502, -1.1178808756728766, -1.135688760856966, -1.1320432849831115, -1.127262556059482, -1.1528499589277763, -1.1371770037672981, -1.1571353897750158, -1.1650122495075137, -1.1396943715271253, -1.1307271816857032, -1.1248391057282041, -1.1563670908853718, -1.1698554162756547, -1.143144554668464, -1.1706213256685205, -1.1823181351333727, -1.175724807647152, -1.211946295492346, -1.173308457497657, -1.1638114979771639, -1.149784880175022, -1.1733638399873974, -1.1497677279090743, -1.1795663659615567, -1.1675171135015487, -1.1562906966061335, -1.1505516051336715, -1.1507408484610162, -1.152276220581335, -1.1413252304338761, -1.129171455592339, -1.1633664875904026, -1.146084603072141, -1.1439093148416084, -1.1502096329666902, -1.1707833503713037, -1.1904685360373677, -1.181087309915424, -1.1762791187854276, -1.1820506248360658, -1.1808314243542857, -1.203967276337094, -1.193029908997597, -1.1986057787858762, -1.2194682085242705, -1.2420249556743974, -1.2683079085642879, -1.2725365404361497, -1.2787469036508532, -1.2792358913056794, -1.3034526569875249, -1.3246632699069136, -1.3226496691251477, -1.2884670969808887, -1.3069177537877719, -1.3430092960753668, -1.3486639635484916, -1.357034435060792, -1.3721199105724202]",True,0.8000,0.6000,0.4000,0.1000,0.2000,0.0100,2.0000,True
66,go,Hit,1,0.1300,"[0.0, 0.021840489994824828, 0.053101958284836326, 0.10687445508652965]",False,0.8000,0.6000,0.4000,0.1000,0.2000,0.0100,2.0000,True
67,go,Hit,1,0.1800,"[0.0, 0.012500205527309197, -0.04004464635607998, -0.00311653165995867, 0.01934167366556141, 0.06635095044265142, 0.08052174839316714, 0.07522991259284954, 0.124199214409281]",False,0.8000,0.6000,0.4000,0.1000,0.2000,0.0100,2.0000,True
68,go,Hit,1,0.2500,"[0.0, 0.021524998617604367, 0.012007548380771532, 0.009738083033304411, 0.006368639567066799, 0.051361794532847616, 0.02759108974190947, 0.03480698305810398, 0.014470734447537992, 0.0565548471577084, 0.06920233121060107, 0.06595393348105044, 0.0880088223301762, 0.08045511968624737, 0.07771483108822635, 0.10233053846991023]",False,0.8000,0.6000,0.4000,0.1000,0.2000,0.0100,2.0000,True
69,go,Hit,1,0.2800,"[0.0, 0.0001501923814849846, -0.005809775900523152, 0.007154465724557602, 0.014613742175516049, 0.028400702243525155, 0.032534906427572834, 0.025933510628551336, 0.005385637524510649, -0.004635512028592553, 0.018986855438343938, 0.03354462131061398, 0.038207366535775784, 0.043456291807510906, 0.05916933145647802, 0.08646399158015895, 0.08588704028579948, 0.07184104152589867, 0.12264941010131482]",False,0.8000,0.6000,0.4000,0.1000,0.2000,0.0100,2.0000,True
70,go,Hit,1,0.2200,"[0.0, -0.001968106136921513, 0.005858350354871913, 0.0006799364062904847, 0.028279881715581573, 0.04814275685883647, 0.05731673957104594, 0.06243608262006602, 0.0658427812335675, 0.051068207372099564, 0.07846118185557353, 0.07750816963312988, 0.12495600421557462]",False,0.8000,0.6000,0.4000,0.1000,0.2000,0.0100,2.0000,True
71,nogo,Correct Rejection,0,2.0000,"[0.0, 0.020941081242810737, 0.007950000223222908, 0.016302708257226847, 0.039358574074492725, 0.03803592500107657, 0.038942292984234496, 0.05491389140158637, 0.039318102901788124, 0.018777576728924234, -0.006003460418648573, -0.046015457614123775, -0.049989169895541606, -0.057087111722451234, -0.05861605340292819, -0.045065148428811826, -0.03970827345030185, -0.06299594932348493, -0.05216333651876043, -0.040602489742390196, -0.06875169116244978, -0.031333738166996035, -0.042845106969820274, -0.08705505856482643, -0.08244173685505364, -0.10447227623703252, -0.11045485005499378, -0.10167008881683642, -0.11017495607460347, -0.10440781014236164, -0.11737297419036923, -0.1454061879807344, -0.1328377201260184, -0.17764087039779192, -0.20431207498325782, -0.23791693485954074, -0.2659855069677636, -0.2946439026687408, -0.3002367832783291, -0.30461256780567153, -0.3302886859317215, -0.3314545893741606, -0.32390496195801094, -0.3446570887981235, -0.34120439251566154, -0.340054442703706, -0.3370562873243251, -0.34893289889388057, -0.356044870313765, -0.356411121237126, -0.40161977955502753, -0.41057054928657677, -0.4032865092782257, -0.3925266287219612, -0.40284688077653064, -0.3850188583731853, -0.4008412196639672, -0.39113658912727356, -0.404268522343537, -0.4146928171596319, -0.4347930018121653, -0.4329872043494865, -0.44163951704710125, -0.4057382455501949, -0.4037440338900108, -0.41481203926710697, -0.3977157625964433, -0.40032323889623633, -0.40516315894977933, -0.4034560167627899, -0.4314603813764676, -0.41115350197164297, -0.4245878890699066, -0.41844830551359147, -0.4163704804623549, -0.42929327344636387, -0.4450073601132469, -0.4559566455223228, -0.4817709693322795, -0.5078337140974301, -0.5287302863098735, -0.5136341377668171, -0.5483522603687664, -0.548381958673537, -0.543230889824283, -0.52018149125763, -0.5003979209192155, -0.5493748406766701, -0.5103725447802008, -0.5318922983328871, -0.5620165609717688, -0.567163487211238, -0.575971502895472, -0.5796092610605795, -0.5990178856412086, -0.5938799472595698, -0.6179840804744939, -0.6243205159026863, -0.690520459813162, -0.6634461832743634, -0.6552210414297343, -0.6671627374729278, -0.6840840390646381, -0.6901288964613679, -0.684940588307227, -0.6976885904032901, -0.6812161129736656, -0.6744816479376059, -0.6791853562322513, -0.7279186919046414, -0.740381559613442, -0.7533508746378302, -0.7990140551191653, -0.8258088440351713, -0.8267624381523238, -0.8410044156656755, -0.8553740296787561, -0.8607543110020835, -0.876473835115769, -0.886149182426544, -0.8890332990656657, -0.8951713209735842, -0.8915889323102835, -0.9041285912295454, -0.9428912066732766, -0.9782369921909623, -0.9444403836793767, -0.9478170967769795, -0.9165032559349583, -0.8868728491623454, -0.8833001808487541, -0.8696348453036435, -0.8739150672635769, -0.8800515624820694, -0.9096076963434718, -0.9385920228253607, -0.9268970411642216, -0.952062396729577, -0.9408050909868669, -0.932048154799192, -0.9575305850702314, -0.9442210964527854, -1.0006792977321821, -1.022057061730926, -1.0283159380470062, -1.0591710332453081, -1.0661801791134171, -1.0600495325452581, -1.0410967677678868, -1.067517756005367, -1.0624320154847762, -1.0445038184822077, -1.0454924473606075, -1.020806493342133, -0.9816810638837863, -0.9846923821859198, -0.9896447947433731, -0.99860379643803, -1.0179709225376627, -1.0162692389027288, -1.0332050639132018, -1.0658624222729527, -1.025528757263255, -1.0462181797171848, -1.075408770995722, -1.0569315486773805, -1.1107322571233662, -1.1169828585745356, -1.1168399931801363, -1.1425356116168897, -1.118478523959672, -1.0881144876506865, -1.0775135027889293, -1.0864626876165335, -1.0948593782169813, -1.0829199741512376, -1.0957341932330469, -1.1215607523696451, -1.0958915774865523, -1.0607498476756927, -1.0697255951205376, -1.0606187707797494, -1.0324564839543833, -1.0677273941614416, -1.0731913197585368, -1.0487000066679992, -1.0707524580716525, -1.0736519826368895, -1.0990086234960839, -1.076624573565038, -1.0681533554336295]",True,0.8000,0.6000,0.4000,0.1000,0.2000,0.0100,2.0000,True
72,nogo,False Alarm,1,0.1500,"[0.0, -0.01702797258003818, 0.03804804634061213, 0.049654391825458694, 0.059029513927852696, 0.11376127047947573]",False,0.8000,0.6000,0.4000,0.1000,0.2000,0.0100,2.0000,True
73,nogo,Correct Rejection,0,2.0000,"[0.0, -0.02336621089351938, -0.016536427946877274, -0.024201001056222277, -0.03938280603053345, -0.0674631951716396, -0.07065407647145323, -0.06589083507476685, -0.09190457100792987, -0.10556264742431476, -0.07518550253840593, -0.06236881816778427, -0.06567092346174105, -0.1034743448930436, -0.1045249410743265, -0.09156229869583785, -0.08968524031220802, -0.08817003382957427, -0.09141757725418359, -0.08477732917737592, -0.07605126957023627, -0.091466362566274, -0.0681075747759597, -0.06308745216865363, -0.04583227494638124, -0.07010346355711383, -0.07550270135733214, -0.07772131797928102, -0.08851795666635388, -0.06328683314907053, -0.05095371061740793, -0.05208087550266223, -0.06593484071963446, -0.10084153391409195, -0.1259442189112337, -0.14213309394999069, -0.17672651703627, -0.1811124741746821, -0.18924596737781998, -0.17387463766966071, -0.19720709542701104, -0.19978872534503217, -0.20509013440648305, -0.21501083342100896, -0.24036955771244234, -0.24918850091985084, -0.27749192642093856, -0.28198329961482665, -0.3207448899106899, -0.29802940819001267, -0.29619154320002544, -0.29509004525722105, -0.32496668679247104, -0.31499832632100266, -0.31157850487737987, -0.30907936599215263, -0.3036974358470821, -0.2969260355102952, -0.31433277549698807, -0.32514868275050113, -0.324069912798742, -0.35801015661238533, -0.356122981676534, -0.34935591737237787, -0.3707544214280894, -0.3825441947935713, -0.40333480067252314, -0.39495788150883926, -0.4130449452935394, -0.40447412905205354, -0.41312525973893427, -0.4204791272901957, -0.4358848405027412, -0.41964245096697256, -0.44504095554189804, -0.44897548661278164, -0.46242404093652173, -0.46123382611075103, -0.4802040093791149, -0.47003638811982945, -0.4818049494786101, -0.5006057871476809, -0.5376989208490051, -0.547484112111231, -0.5612658019786914, -0.575907858648175, -0.5581300294969859, -0.5621692904303283, -0.5723510537928247, -0.5497097153895671, -0.5602600552982441, -0.5739654824363976, -0.5812242805568665, -0.5910702432113046, -0.581054392404257, -0.5816739316450567, -0.5340154381614722, -0.560855491180147, -0.5752458041040925, -0.5478310904693978, -0.5172809209376565, -0.5389891253000495, -0.5516228006142716, -0.5323354312456664, -0.5185367960555983, -0.5002248195945183, -0.46035341158276033, -0.4356845378978989, -0.4751762404240912, -0.4884741460763406, -0.49251194967948986, -0.5105421120331616, -0.53104365619694, -0.5226733306700866, -0.5790515595538147, -0.579355103437976, -0.6207889119109222, -0.6371976674839156, -0.6628660670172819, -0.6898143378049209, -0.7142543184808252, -0.6908796667973243, -0.6849434234918311, -0.6984663812818044, -0.6985199743356361, -0.7077078438068769, -0.6968424255878352, -0.6647175292404411, -0.6608993952731796, -0.6798033931816171, -0.6892661748572438, -0.6563978591187261, -0.6471713335752625, -0.6603546283244375, -0.6852387668535304, -0.7283255340972615, -0.7053436529827035, -0.7209579875003458, -0.7370150553157117, -0.733324107261753, -0.6932573405675373, -0.6976911833009333, -0.6961452316799219, -0.729127175916643, -0.7509745431425788, -0.7510767752154678, -0.7315482312977041, -0.7339252431976769, -0.755917149623115, -0.7603139902334904, -0.7518769037109475, -0.7582918150699728, -0.7519541705543189, -0.7602792951804939, -0.7227305674440208, -0.7199011189774428, -0.7075057175220643, -0.7270433762403848, -0.7306008682370185, -0.743776768857375, -0.7159189915494845, -0.7317875009819116, -0.7173435948296688, -0.6881715427692118, -0.6697423124984007, -0.6611678915840721, -0.6653793939889336, -0.6585804238929622, -0.6697303131723293, -0.6471030036238599, -0.6807551371742748, -0.7376890562902073, -0.740254146168424, -0.7188473548779649, -0.7406128996711299, -0.7442518298430519, -0.7252934739321055, -0.7536677099379782, -0.760343347316449, -0.7702104888206015, -0.7930123349275855, -0.8095658217548307, -0.8158537454483001, -0.8317733832683035, -0.8679763354792558, -0.8498948982064207, -0.8505164157173843, -0.8520269873332923, -0.8289227245371227, -0.8342579008400818, -0.8625215038869687]",True,0.8000,0.6000,0.4000,0.1000,0.2000,0.0100,2.0000,True
74,go,Hit,1,0.2800,"[0.0, 0.004579677588746465, 0.014370725119847463, 0.036826282291674686, 0.022055831844910105, 0.03205637824534763, 0.043236325275004005, 0.029635304168981934, 0.005917834673111744, 0.009841379924932836, 0.015495688787813145, 0.01414379471412856, 0.012336787564974446, 0.010201149760298065, 0.04075051619869386, 0.0661856529606174, 0.03124540589136522, 0.06762862946788727, 0.10237392837217395]",False,0.8000,0.6000,0.4000,0.1000,0.2000,0.0100,2.0000,True
75,go,Hit,1,0.2500,"[0.0, -0.01798779932052961, -0.02926575309256241, -0.015299541575942387, 0.017681299033547013, 0.03819888677761002, 0.043563226103131625, 0.061038389977086, 0.05420969636969076, 0.048575005255452594, 0.045317290811223654, 0.05442658986599422, 0.04705420740426719, 0.08501389592501875, 0.09020946587665825, 0.10693698270129134]",False,0.8000,0.6000,0.4000,0.1000,0.2000,0.0100,2.0000,True
76,go,Hit,1,0.2300,"[0.0, -0.0039858370487849595, 0.006267351709154928, 0.005123515944624953, 0.0012311519628337153, 0.0005335483326093429, 0.008569383412808733, 0.006499594746497224, 0.026134625494047464, 0.05663931662262061, 0.0461976296181025, 0.05117383414844731, 0.09706429198600783, 0.12514448505174122]",False,0.8000,0.6000,0.4000,0.1000,0.2000,0.0100,2.0000,True
77,go,Hit,1,0.3400,"[0.0, -0.01975503742886373, 0.0020882180108622236, -0.0020922432771644482, 0.0011822542124634156, 0.022565495788199233, -0.024106153185281386, 0.0004379923380782094, -0.011757083742652469, 0.0028943800617911505, 0.007357858948021746, 0.01592249276865644, 0.013037482399459677, 0.017445121223520862, 0.030511794713701648, 0.020407165192818537, 0.014123608348660874, 0.035412297726943875, 0.05634185216646225, 0.05613778954954181, 0.0331999869985566, 0.06443160517976622, 0.08203974020097776, 0.06918553046227771, 0.11418789612647454]",False,0.8000,0.6000,0.4000,0.1000,0.2000,0.0100,2.0000,True
78,nogo,Correct Rejection,0,2.0000,"[0.0, -0.02190460662494731, -0.0107224271720395, -0.013180092553898706, -0.03960735829523315, -0.04435412617999405, -0.0606465814756692, -0.07219283866892907, -0.08670691433793747, -0.08981460921966397, -0.10641615832916938, -0.09794211499289551, -0.09384924122303773, -0.10036566556101353, -0.08856281963120148, -0.12327057818647279, -0.12149882560442138, -0.13644472397991103, -0.13389498014004717, -0.15291945256817713, -0.17094791325793943, -0.17239090490179237, -0.1824229032605939, -0.23900806379591955, -0.21960980959570506, -0.23282817142445275, -0.2125103187071075, -0.21679660106950435, -0.25325263081311267, -0.2611635913703525, -0.22119305069653322, -0.19743042466312688, -0.1719887891535004, -0.1799805722752244, -0.18597453855409202, -0.19009494887634737, -0.19677956016391998, -0.19108596656258112, -0.18938687544786123, -0.21142082981992688, -0.24407814701916322, -0.21684956637596198, -0.21610276394864905, -0.2513750735110027, -0.25241746514040236, -0.25048566406528344, -0.22382946619881758, -0.24521629152277716, -0.24843050747067244, -0.24013200385827918, -0.2543707918822637, -0.26542928967328316, -0.2867655341669719, -0.3351445663552416, -0.357496558819379, -0.3737848026153399, -0.4144706079533179, -0.401348543993067, -0.4336992461879105, -0.44180297346400355, -0.4639434025647612, -0.446305567921962, -0.4841997678064973, -0.49523597496205435, -0.5135470858994898, -0.505536896263447, -0.5071039461046831, -0.4881077576797125, -0.48870102106947744, -0.49529487221218127, -0.475053549244962, -0.4545200042998867, -0.45495114580418383, -0.4514894005202944, -0.4854387270344367, -0.4988420487842248, -0.5354107049793297, -0.5371887908948721, -0.5591193315450022, -0.5830315517451593, -0.582013697650503, -0.6010157986858254, -0.6245821019658949, -0.6149194483258696, -0.6349013627960032, -0.6788084885194037, -0.6818295632328545, -0.6959413225585607, -0.6744931237638985, -0.6686377334558472, -0.699379264606335, -0.7196026476080186, -0.6991663190427576, -0.6974955136196895, -0.6847741363380109, -0.6693634270775936, -0.666531189900375, -0.6911029002955468, -0.6800425813005795, -0.679729572084668, -0.6859209425176738, -0.7209165577719573, -0.6847724665240201, -0.6942542763443391, -0.7080714454128176, -0.7189608314423488, -0.7097217492687362, -0.6851677008275986, -0.691036129679892, -0.6777734392948639, -0.7089805267489278, -0.7295670780629343, -0.7488460549657704, -0.7196159652163243, -0.6696918472853276, -0.650357244381927, -0.6578006548223894, -0.686751125011541, -0.6840900787421231, -0.6744714620807566, -0.6557692466897772, -0.6880487415967802, -0.7181389687479424, -0.727247115139466, -0.748248874479324, -0.7406927779187634, -0.7289290015927089, -0.7559507623774973, -0.8126631110167761, -0.8171660726956473, -0.8267732201883982, -0.8230617845701922, -0.7662389412074128, -0.816206887379763, -0.8328101635146834, -0.8692416969706166, -0.8681663130899903, -0.8403462363552218, -0.8399016841545425, -0.8676060186792882, -0.8384985159670648, -0.8234879344008252, -0.8352338956381548, -0.8630527943902555, -0.875563841362619, -0.873888343849413, -0.845477442668215, -0.8378931451713121, -0.7891059266149114, -0.785691898712192, -0.7804433919150776, -0.7896564769127166, -0.8041328370669921, -0.8183242446256176, -0.8198845506347479, -0.8122571152972362, -0.7953868559230415, -0.7963018960525727, -0.8079650689845586, -0.8264713940659688, -0.8263665111918055, -0.8306193186496401, -0.8182528797111625, -0.8248659400246067, -0.8193673574528312, -0.8225939148386074, -0.8715212597216448, -0.8741698605968853, -0.888672453042563, -0.9153741261681476, -0.9061682116327014, -0.9321104741055515, -0.9320315935599255, -0.9275299437661298, -0.9350067901433216, -0.9494075177414228, -1.0028571694365134, -1.0251639456920534, -1.0088878538937647, -1.0129519926164978, -1.007025876825926, -1.0120489444895402, -1.0464251847626949, -1.0635903895854233, -1.0434775023033518, -1.0027930503207438, -1.0002280818876317, -1.0359865651292712, -1.0586321345517353, -1.0872125811890192, -1.105358599103869]",True,0.8000,0.6000,0.4000,0.1000,0.2000,0.0100,2.0000,True
79,go,Hit,1,0.1800,"[0.0, 0.01003490232975647, 0.005880879558208065, 0.04060901722735015, 0.05059640075431332, 0.08357409535052593, 0.08551585082000497, 0.08553649897611326, 0.10443231041915318]",False,0.8000,0.6000,0.4000,0.1000,0.2000,0.0100,2.0000,True
