trial,stimulus,outcome,choice,rt,trace,timeout,w_s,w_n,threshold_a,t,noise_std_dev,dt,max_time
0,go,Hit,1,0.5800,"[0.0, 0.057295506383652085, 0.10646942227599199, 0.16197486618811135, 0.1633610275469823, 0.15533815391807038, 0.18244983860048164, 0.17447819267528383, 0.1729857331003643, 0.1968529539537097, 0.18766346021737318, 0.17268080519067497, 0.18921946459218478, 0.19563010832163505, 0.19168696347224104, 0.18754940212118706, 0.20788374440902313, 0.22571140337890294, 0.23281931909417639, 0.24251265703876698, 0.22159437198279724, 0.23008805406344712, 0.2598523399872137, 0.27293880237222434, 0.30480437792537607, 0.318710033825109, 0.3338562177526403, 0.31220292785552556, 0.31046323021605904, 0.32630995175943234, 0.35050841827426066, 0.3705954805883488, 0.38345705228189225, 0.39402911100629984, 0.37628207445961587, 0.3748447992375003, 0.38781545274219664, 0.40687705184040046, 0.39742366311852817, 0.3932040978464969, 0.42785342172930196, 0.4202841889611485, 0.42842926425961914, 0.4148022814692938, 0.4300591621286893, 0.45834911333968714, 0.49828284478997714, 0.49701377461088314, 0.5267230690404775]",False,0.8000,0.1000,0.5000,0.1000,0.2000,0.0100,2.0000
1,go,Hit,1,0.7500,"[0.0, 0.023189341172472542, 0.0017364853515583305, 0.0010887037408183926, 0.014012294677278105, 0.042473318461255, 0.0967264682121605, 0.0784767683355547, 0.0965036826067824, 0.09240729509123453, 0.07666304587354503, 0.06738571717682555, 0.08963045857744761, 0.0786327101739581, 0.0851564366626679, 0.07236934954292916, 0.07568197830408416, 0.06240620980088451, 0.0829962621366877, 0.10903305159531892, 0.1196885291774754, 0.11759635232810817, 0.1339792373673045, 0.15343719548389412, 0.16278742392014592, 0.15244735845553636, 0.13570116172022134, 0.1498803922254274, 0.16721911225465527, 0.18775387902502189, 0.2185672826874877, 0.22453323043956483, 0.23162347051018897, 0.2241132647996311, 0.2155848078646098, 0.2079544302888062, 0.19080736277562726, 0.19839758797643406, 0.2378619886789041, 0.2400754851849312, 0.2551617328622298, 0.2870489150431687, 0.30231908624002074, 0.30580721048695353, 0.3055978608668549, 0.35187750878692176, 0.33804068307479757, 0.3414157317975778, 0.4013816481038065, 0.4102007432275048, 0.4139659868369525, 0.4340511416635392, 0.43262651441981026, 0.44143641651634624, 0.4518004419664105, 0.47029417101340243, 0.4562133918228659, 0.44968290376627423, 0.4661424870363757, 0.4671706227464325, 0.4904116945883064, 0.47660265607456426, 0.4789050354059671, 0.46652060766416753, 0.4660871515813676, 0.5164523901371982]",False,0.8000,0.1000,0.5000,0.1000,0.2000,0.0100,2.0000
2,go,Hit,1,0.7100,"[0.0, -0.021772104442148867, -0.010275707360356514, -0.019978864424968157, -0.04534574980945663, -0.05222480428978074, -0.0542810923992346, -0.03691208837339942, -0.01695814240429756, 0.004882743133843875, 0.03532827127619394, 0.03460493570618417, 0.07023540197329842, 0.0722023021283113, 0.08729690339899561, 0.09712864635152331, 0.10888570401998657, 0.10998942025996639, 0.1307177684011181, 0.1523180578471516, 0.13480078441212515, 0.11829934744501265, 0.11653334257522266, 0.12397971490813184, 0.14700307615798705, 0.10662619080002118, 0.11797008745547412, 0.17448682232150373, 0.2045647370852457, 0.2206113013890123, 0.18960641685261764, 0.21510389198751237, 0.22238390134155578, 0.26078859467581245, 0.2592640311012455, 0.2714860446343073, 0.33000638140419486, 0.3023347637738584, 0.30494363713857686, 0.3322075579339868, 0.2965229926542449, 0.2840031204144019, 0.3348090343044486, 0.34509446102758784, 0.35413334786099, 0.3868433619559277, 0.38766482393924967, 0.3715663534748671, 0.3617602613940397, 0.3633072642861556, 0.3655445157317284, 0.37651700923067355, 0.3821107048163424, 0.3751313613779585, 0.3655427611143941, 0.39692288541432535, 0.4290289180288862, 0.42734127246651465, 0.4245613753617933, 0.4827119379082742, 0.47523796791722167, 0.5174209076669624]",False,0.8000,0.1000,0.5000,0.1000,0.2000,0.0100,2.0000
3,nogo,Correct Rejection,0,2.0000,"[0.0, 0.02138147182602669, 0.0026899201936825302, 0.006454635412736619, -0.011046971507117882, -0.039783329438719636, -0.0151952735552641, -0.002033891639146886, 0.003870836388369479, 0.001882569417738727, 0.019048179070591524, 0.06353756818819126, 0.08559835114612385, 0.1154145984022473, 0.11451287108371003, 0.09407300601834204, 0.07845379870051275, 0.08494921392439457, 0.06200615349316069, 0.049828203804119627, 0.050731455804273476, 0.03439274677086897, 0.04685174624717754, 0.06581988789010836, 0.05277453952773462, 0.08751574797362272, 0.056809770582279505, 0.06057452119564505, 0.07141009931882289, 0.06762062945126947, 0.040126446027586825, 0.04193043598071286, 0.09784961095916819, 0.12099927688250638, 0.11755490446226471, 0.10794610585146623, 0.08002084250315258, 0.07139066034556879, 0.09185270269379742, 0.0887226607599213, 0.0911794537253057, 0.11651221428414682, 0.12728089548900978, 0.1089953298448844, 0.12071227043247983, 0.12827434191460282, 0.12951971833786324, 0.12497563221253494, 0.08878162152777481, 0.06626496280858135, 0.06582897453914066, 0.09234992583655145, 0.09359370117648698, 0.12561857231438128, 0.10773357730102645, 0.09932575224366783, 0.09129992359219526, 0.08972326710774488, 0.06777510427216171, 0.06966049222327887, 0.07087861651312963, 0.07868392802896705, 0.08845996198395878, 0.11844123476207188, 0.14687467539359647, 0.1487572979181802, 0.13243835803951404, 0.1361184047999395, 0.1090599446654116, 0.1286420125906817, 0.13824751130531646, 0.11714722354473735, 0.0913066670999247, 0.09312104371480907, 0.10514556263495803, 0.07834693063716199, 0.08817470814869204, 0.10282227647267123, 0.08631001648102266, 0.09328108194894776, 0.1216254950141549, 0.15290142748668756, 0.17470576970898039, 0.15107585823961292, 0.13525113241002124, 0.09978839361219208, 0.08287017786479671, 0.09554760956063583, 0.08726033787384922, 0.0965360509688044, 0.11178897133776035, 0.11133671324965402, 0.12452550425689624, 0.12594639497809798, 0.1175466669881984, 0.10689231488087839, 0.12334670685009559, 0.13121941850344215, 0.12680471366481472, 0.1253812499920547, 0.137170645980652, 0.16063735028349102, 0.15869173957080981, 0.1577306708148356, 0.1890481345423672, 0.1621712452970978, 0.17690893400818558, 0.21072079190871337, 0.20135823876114284, 0.19457018524229952, 0.1829853977480237, 0.1807356484511956, 0.16732327829874274, 0.1349008827770421, 0.13093301062962645, 0.13099175319644124, 0.0994653258470172, 0.08607292842853727, 0.07714574232162519, 0.1037249366924937, 0.0855673339857037, 0.10038322933505993, 0.07904805340227605, 0.054788928699908666, 0.10201898659954864, 0.14462694614046848, 0.15222359351899709, 0.1516662046096295, 0.16829525698307823, 0.19006690529599066, 0.235672629785383, 0.2359239950053554, 0.20281074232637022, 0.18308413536501775, 0.14391066292260704, 0.15397942316549304, 0.17155499176512004, 0.16302098657717629, 0.16473615109327414, 0.16876205213219866, 0.17035515698408632, 0.1695505605208411, 0.17440552964088024, 0.17514273806791322, 0.15456424815371161, 0.14491276443723444, 0.17292968992150404, 0.18252091720635577, 0.1889739719923881, 0.22378481262554553, 0.2418850864944452, 0.2643493485682269, 0.2514642600612347, 0.23716554713166765, 0.2861297577148145, 0.26771030624227055, 0.26916946184185014, 0.26387221247024323, 0.2737730525631982, 0.2981054439647637, 0.27259922485814064, 0.28779908581770364, 0.29940713544332004, 0.28756208915640435, 0.2911257125033892, 0.297108210802854, 0.29225235786789855, 0.25806705513153655, 0.27096089056546024, 0.28006724353640766, 0.26969596788043665, 0.28518531547673753, 0.29017448188423717, 0.30706584890559674, 0.36067207608463114, 0.3872915019377766, 0.41587813094992376, 0.41977744998047456, 0.42655459258930123, 0.42413975011667604, 0.378905897635113, 0.3853940239345157, 0.3885452649893608, 0.3853117632092159, 0.4002972425099349, 0.4227137399169488, 0.4069216048481107, 0.40503453060305344, 0.4339190979234401, 0.42400396471548696, 0.43949040139477796]",True,0.8000,0.1000,0.5000,0.1000,0.2000,0.0100,2.0000
4,go,Hit,1,0.6500,"[0.0, 0.01666505141268381, 0.012536017501081244, 0.023726854164176032, 0.015001116600861966, 0.004508941354571635, 0.03959294594536085, 0.049923690544775225, 0.030068491989747582, 0.036399543969709305, 0.008302084731090432, 0.0025722822322694072, 0.015713227659147302, 0.04735717501486744, 0.04367896420890549, 0.07875042645159057, 0.11628959216520454, 0.13893721945933996, 0.11713854139656268, 0.13026244349749788, 0.15022808201420354, 0.15649295002818361, 0.14633661284559257, 0.13486973905380573, 0.14890292856673454, 0.154644042793835, 0.16547872859037308, 0.1616559249960314, 0.17898200330798802, 0.1820112154123074, 0.22383437733288597, 0.20468513907859276, 0.21170440293638876, 0.24234408279562603, 0.2605123130851698, 0.26804126501505243, 0.28771106271003716, 0.28092403406111366, 0.2630006703161764, 0.2912658049747205, 0.3121910896514984, 0.28723582394784447, 0.3056294281097218, 0.30869871757877, 0.3345009510150106, 0.37896106669909524, 0.3944498989572696, 0.41698257606419153, 0.4569354442453755, 0.4564918949397495, 0.4422845808525638, 0.4569476030411666, 0.4593451356508307, 0.45842574583869183, 0.46835538240956476, 0.5180172283006353]",False,0.8000,0.1000,0.5000,0.1000,0.2000,0.0100,2.0000
5,go,Hit,1,0.5900,"[0.0, 0.03688192174630224, 0.048012840470035456, 0.07145227246589236, 0.06208227992361359, 0.105955226794815, 0.13126966432416293, 0.1409197570245364, 0.1386713525157976, 0.15193649237094667, 0.16230176396473206, 0.1754975962451809, 0.1911999511869894, 0.19504735562064668, 0.19329044283455724, 0.19013581973041865, 0.20882134724301676, 0.21548298720244052, 0.2529112879649526, 0.24901583409606437, 0.25198883488262175, 0.24248166028039328, 0.25736226458524236, 0.24361854070271674, 0.27242518572772156, 0.2762878448094787, 0.26685769045057506, 0.27994078750787904, 0.24845845245700185, 0.273336929998316, 0.26506612844255606, 0.3269729231222668, 0.3437996040356657, 0.3769767242504334, 0.3993452885453378, 0.42246170633905367, 0.4270804401289116, 0.42062019049223537, 0.40641840067833124, 0.40393282075446785, 0.3908542680305013, 0.4001294806345979, 0.4003949128204276, 0.3861965501642415, 0.4196354087822206, 0.4328118309424327, 0.451161549321816, 0.4858368470775539, 0.49949754765373344, 0.5316256127904793]",False,0.8000,0.1000,0.5000,0.1000,0.2000,0.0100,2.0000
6,nogo,Correct Rejection,0,2.0000,"[0.0, -0.029466671596031894, -0.036747938483873296, -0.06442746220809423, -0.08830975322270868, -0.07194099410722807, -0.0744811080008065, -0.09142444260273583, -0.10441526126266729, -0.08669416950863365, -0.08694408551196153, -0.06476406752784988, -0.07980654025283246, -0.07847149007613378, -0.08644828728029798, -0.11632549209593022, -0.10591850133362155, -0.11809633561975093, -0.13076646327468758, -0.13725140966155547, -0.127496688033002, -0.16841164347539458, -0.1710366346063609, -0.20839917915287237, -0.20659269712208816, -0.19813137040022918, -0.25251490689567413, -0.2517227702000391, -0.2611875446861885, -0.27479976059498235, -0.3027723659797511, -0.3346347497060215, -0.29671375333927424, -0.2877871909766839, -0.2719323112430905, -0.29506010877185823, -0.28451094979918484, -0.2924990279464256, -0.27456357166070244, -0.2363843684106532, -0.23858393658041147, -0.22217645379977188, -0.20427443144180624, -0.22743171539179224, -0.28544883337470217, -0.2533304942798513, -0.26652285323541053, -0.25665052503694125, -0.27124235118302065, -0.27728797397746957, -0.2614531819793151, -0.24447065192295572, -0.25738686624380863, -0.24871105630457999, -0.2352967802095937, -0.20580371461954738, -0.18530249899132714, -0.18057219103880287, -0.2175067647365097, -0.2117471820879103, -0.20471351655693296, -0.22451562460379412, -0.23192153600259915, -0.21497644219888618, -0.2317779770876368, -0.22393481140262197, -0.2173089402378781, -0.20737769927858085, -0.20413754808292725, -0.19734396029685347, -0.1781286118129168, -0.17801476941224592, -0.16639649967832337, -0.18101909067104233, -0.19318919688720093, -0.1897361738416691, -0.18228630848677602, -0.19248127566997, -0.178991836900181, -0.16772264118313204, -0.15811203253208692, -0.16191557933012363, -0.1655606463825566, -0.18677631349421456, -0.19768792762283854, -0.17623599831630776, -0.18645670579885107, -0.1653904761474814, -0.15543967624825025, -0.1386837652708261, -0.15208717635168661, -0.19190484625315107, -0.1851553343833156, -0.1795798293243879, -0.18474489591486673, -0.17033255334591693, -0.16560489525028152, -0.179677726330419, -0.1723596501195136, -0.16285474992160834, -0.15856292570543343, -0.14182878655843476, -0.12733587608787586, -0.10771508794209644, -0.10748654173317171, -0.10406253243739165, -0.11698953443575447, -0.0882958139858748, -0.08908624556748394, -0.11044047337269682, -0.09596129258233953, -0.06557197217736292, -0.07698554197143623, -0.052155025459601864, -0.03734571272487013, -0.023514033718368268, -0.05645587767795468, -0.03612292458339471, -0.01730764637385771, -0.029341905985965377, -0.04643836422195357, -0.05370876780368005, -0.042280548252304866, -0.039706196279271896, -0.07178564909830648, -0.08265520897074678, -0.08262009420319841, -0.07599451302807474, -0.09493219408900003, -0.08961832237269703, -0.08125921792655579, -0.08942769675786284, -0.08566108926293747, -0.0782462693774656, -0.07953062189938007, -0.10366068236561006, -0.112632640368091, -0.11323848772201683, -0.14261304237265698, -0.14230893766116873, -0.1251822978051733, -0.13149171279878108, -0.10883353345648861, -0.13807354269544905, -0.12084694073028182, -0.1290298771675653, -0.15332819436712644, -0.19345827684658337, -0.18276739477143733, -0.17899734829911698, -0.19014855860417446, -0.18404175035825396, -0.16237452832639485, -0.17431067792755603, -0.15323278785296346, -0.15545646622069537, -0.16029916592203677, -0.154652437271206, -0.13279372100772546, -0.10056156771235011, -0.11972628211264313, -0.12171135458840372, -0.10451442244038876, -0.1151073032120723, -0.11748260687072151, -0.14967958299642303, -0.12038169062245047, -0.16355511493868155, -0.15593475782435648, -0.17928401918483547, -0.17657365039729997, -0.17986701419571566, -0.12522209862303957, -0.1308658133865796, -0.07951402959646331, -0.081350342609048, -0.08717652348515108, -0.085976261213228, -0.06777266670406656, -0.06445438780663815, -0.08049857682717215, -0.0701281168155236, -0.04446791045349797, -0.06007032049347864, -0.053820695722476705, -0.051410893968611725, -0.04830216558122639, -0.050479502863736175, -0.012322432716702747, -0.020603407341722745, -0.00585137596757849]",True,0.8000,0.1000,0.5000,0.1000,0.2000,0.0100,2.0000
7,nogo,Correct Rejection,0,2.0000,"[0.0, -0.03584611057634553, -0.02644538266539726, -0.023676391063198125, -0.0003558652857554717, -0.028006952928668637, 0.007361129755700094, 0.0492051683826039, 0.04515709311500626, 0.03312843915530858, -0.0017623123362792287, -0.009022941549979742, -0.003713870336040255, 0.051329983955503825, 0.05224128047485011, 0.042812434239917985, 0.03705939708302416, 0.02581411411627206, 0.005568987159117814, -0.03154682051011702, -0.050958633756759034, -0.028183628921805814, 0.02509621274245094, 0.048493853464983604, 0.05851568792196534, 0.05416601522065432, 0.04423331440362699, 0.04034165092695667, 0.016598710877717058, 0.04889453623146747, 0.04780270509306589, 0.023192242039142934, 0.002605762645904435, -0.00719732781228145, -0.0033373590399671913, 0.012750524747667195, -0.0006444813886016254, 0.0332102431996109, 0.0228977965877239, -0.01053602443804803, -0.008606456021484082, 0.005487140014729719, 0.03214602718709028, 0.022471858625936193, 0.0675024141858399, 0.07159914419611851, 0.07145806083675774, 0.0629838361275644, 0.07692034729581897, 0.09950400666898315, 0.07601685236687418, 0.041691203323032416, 0.06446647074767249, 0.05812518049670405, 0.04988238869232043, 0.036124673637127444, 0.0041089634023507016, 0.006500630066965872, -0.02597573985901956, -0.04438896411629843, -0.09053910215490359, -0.08122694819496787, -0.08667476589740668, -0.06381102087179916, -0.08467231600114189, -0.10444006374079993, -0.1739583686931802, -0.17000817428143028, -0.15536469878685155, -0.14851063767808212, -0.16946585375993792, -0.17528725789854882, -0.20006766614415314, -0.2224093496082634, -0.1831491284593759, -0.16634062132329502, -0.1692709814070104, -0.16743037253301654, -0.14265064725982465, -0.15117268379752485, -0.18020825477136154, -0.18476187815526066, -0.13887533695873874, -0.1440154656805278, -0.13766756073089284, -0.13646435557219447, -0.18523862328870688, -0.18848770447306828, -0.215986400672815, -0.208880084861085, -0.23370355169197188, -0.22871164278839126, -0.21386767845211924, -0.21440438936941558, -0.2174828974544893, -0.20896632932074016, -0.1982014028109681, -0.17754338143375734, -0.20897575289648113, -0.20859757821347408, -0.17447269709564023, -0.12644045339599133, -0.12344839588445916, -0.1062890647274942, -0.10279407269044549, -0.10517494670323196, -0.11300399029407818, -0.1199100686179675, -0.11439678097461416, -0.07372538184783865, -0.06721218348730704, -0.08927631251857632, -0.09094179301948069, -0.09861839727194428, -0.10921165929706098, -0.1269768445568167, -0.11974208087738458, -0.10324237550265325, -0.09961522681688058, -0.10007922743387268, -0.12568408778670984, -0.14215283214988358, -0.1598120010045767, -0.16072691072682194, -0.1388100113494244, -0.15299232904183474, -0.16571634142113081, -0.1589753836797255, -0.17070986632888688, -0.1504127984020308, -0.12653049371160063, -0.14635388875051453, -0.11862294274166028, -0.13862446248577664, -0.13687019428690964, -0.1429484999832445, -0.13282220800950215, -0.14000199314313497, -0.11297293396259253, -0.12396241212537668, -0.15207178198960863, -0.1197481676283825, -0.07983870023662393, -0.0914481046364507, -0.12008786381240012, -0.14861785018382567, -0.1393290061839414, -0.13468089829164157, -0.13537149995546233, -0.1610081105205062, -0.1409808934029887, -0.16020824333164713, -0.13924298747529623, -0.16587538339939636, -0.15897391920225218, -0.15137856463060767, -0.17117693917671686, -0.1356494096777171, -0.09187682671459363, -0.0714211167618928, -0.06203478470432196, -0.043657511415711295, -0.042371207364826746, -0.0360479915243735, -0.021331562742134005, -0.015059608760006862, -0.03919659106829808, -0.03770816064200969, -0.05516809245766337, -0.08121754954109855, -0.06589233935693348, -0.09821429184944758, -0.09144026195348504, -0.1289830432810591, -0.07545992803946103, -0.07756257390533966, -0.0762995399575577, -0.04483906360194703, -0.0678828386275022, -0.0979511104642067, -0.09335155195012612, -0.0962897895687591, -0.10736913182656888, -0.08884638159731058, -0.11133718769539395, -0.15340862233185165, -0.19341296966682486, -0.15533498423561534, -0.17377575931591166, -0.17502746006082381, -0.19108889852014788]",True,0.8000,0.1000,0.5000,0.1000,0.2000,0.0100,2.0000
8,go,Hit,1,0.7500,"[0.0, 0.012857535294073647, 0.02026259520924092, 0.061055845048152965, 0.05013291996029221, 0.04179337833414057, 0.018749551677606165, 0.018429024852167866, 0.04199944545321153, 0.08695490777764324, 0.09038858445099751, 0.09531699274619536, 0.09833970897163392, 0.0857152167633988, 0.09042120214072256, 0.10223499937108863, 0.11476384719568425, 0.143146891109355, 0.15187380095667607, 0.16943979512301957, 0.19921028153130732, 0.21405405831645546, 0.22536167192715828, 0.20178055781546855, 0.1892766627885936, 0.18748969266567747, 0.20545018191876785, 0.21578840212603187, 0.2218115477772715, 0.2312011485284961, 0.20889666922115088, 0.21560527703060361, 0.19212197301033296, 0.18828859994213568, 0.22029090791224404, 0.23164020749819852, 0.26671955759118954, 0.2849448142891844, 0.314910519896623, 0.33960985500580576, 0.32545243941303353, 0.33631499249992397, 0.3620074998434089, 0.3734195070658351, 0.37774221287589343, 0.40404590771024224, 0.4220605152631398, 0.4352729622891189, 0.4372327481804332, 0.4170183714918707, 0.43007240657695756, 0.4152911872407153, 0.4205581160837751, 0.4242179789177554, 0.4437566398886272, 0.4709432066298803, 0.45849624781667075, 0.44068449337313065, 0.4269331962172802, 0.4001312797752275, 0.42069684419718584, 0.4161626886948522, 0.4278425647749818, 0.44790050282537747, 0.4794552445188224, 0.5009449767478945]",False,0.8000,0.1000,0.5000,0.1000,0.2000,0.0100,2.0000
9,go,Hit,1,1.0400,"[0.0, 0.01678252960436833, 0.0012407009185132697, -0.005918360789969591, -0.03371674616847775, -0.020043650056270457, -0.04163769721858679, -0.02031075070575744, -0.022916011308619054, -0.029846803266173023, -0.0024537235063097525, 0.027040707656260102, 0.009186840053646714, 0.06319847437691914, 0.07052222875883941, 0.07664208792592, 0.0794494530545517, 0.09576304136643905, 0.12621062707506914, 0.1483247821873425, 0.15742062698507775, 0.15618309106756534, 0.16629188230384356, 0.18843737971618277, 0.2015128151991028, 0.21947279723052435, 0.23376182675260687, 0.19875240468320168, 0.19587418441093435, 0.2061714013669691, 0.20308025135009494, 0.19249361652873723, 0.1936466748540819, 0.17441323691551555, 0.22075708277765377, 0.2327901883506225, 0.2900982298222833, 0.2819530399311033, 0.2676594863467245, 0.3041256815647409, 0.27460701172800883, 0.26171309190647496, 0.28029114948790823, 0.2649003322711812, 0.2370810108569582, 0.28066884488726995, 0.26874437519233485, 0.29441182724380516, 0.328431689940152, 0.358470362956922, 0.3636721878534463, 0.34520925433293953, 0.327754031106522, 0.32024659843895814, 0.3456421381003636, 0.3383483834800397, 0.33927769590949786, 0.3177998822323332, 0.3198498940607603, 0.3156952405306038, 0.3016821383738347, 0.29953227398047505, 0.2942706388486626, 0.30395404536620635, 0.32843901991480007, 0.3477724178040582, 0.3550540191714921, 0.35530100153643623, 0.364979161626925, 0.38699070841047367, 0.37907723518805037, 0.36434328914631897, 0.3360438922702361, 0.3432164689619737, 0.32752367494630963, 0.35306870926608014, 0.3291613290960884, 0.32810582427416896, 0.3476778638996774, 0.35352275707750097, 0.3561072444962851, 0.37781095137086396, 0.3980023406018996, 0.4181988166990802, 0.4200007430757978, 0.4304309463365142, 0.43267267036730006, 0.4341716013286106, 0.4555884151290898, 0.4618276727061065, 0.4581762405743875, 0.4656367655939233, 0.4757800663396064, 0.48905331130632146, 0.5179090668858255]",False,0.8000,0.1000,0.5000,0.1000,0.2000,0.0100,2.0000
10,go,Hit,1,0.7700,"[0.0, 0.01527417722667306, 0.02092700151030149, 0.009406569897243987, 0.027953276676376936, 0.042364792839837344, 0.026802006500891616, 0.047733580456306, 0.03972697102248461, 0.014560999089126885, 0.014076226204358354, 0.0611032849982972, 0.07252886634397145, 0.08804252939660566, 0.10474454224305041, 0.10242426346873955, 0.12297063264102778, 0.11433074681835514, 0.10500986333933263, 0.11298757759712658, 0.14146964072817253, 0.16921210300096134, 0.19341789890644745, 0.20283838037155325, 0.19024971192916584, 0.20827215310317765, 0.2074172887963063, 0.1867651871836701, 0.20617437465649907, 0.1574103188434824, 0.1772017078886085, 0.1847319029273528, 0.20353096871912885, 0.20755836796539065, 0.2257731896634731, 0.2003067208706948, 0.2127520727171091, 0.21693914874556666, 0.21639687493091642, 0.22333838225734254, 0.2065983633429076, 0.20057310568352718, 0.24134004656964922, 0.2633218297034302, 0.2580521230282346, 0.2887112325171614, 0.3005462443996567, 0.3134262582594588, 0.3284452546171391, 0.332698925333837, 0.35151788729801575, 0.3342019799911576, 0.3393468352088706, 0.3233005085537063, 0.34401724807713685, 0.31681799992120685, 0.32689639524491265, 0.3405422145203406, 0.353352971178614, 0.387514240396818, 0.39999678827799723, 0.4311318925846042, 0.4523263368726499, 0.4713463596333641, 0.4790912425473117, 0.46560459223635986, 0.47096818393832857, 0.5042663656659154]",False,0.8000,0.1000,0.5000,0.1000,0.2000,0.0100,2.0000
11,go,Hit,1,0.7300,"[0.0, 0.036254912305720574, 0.01134579419417684, 0.05747028158707436, 0.041739435787678414, 0.053636368220194686, 0.02296063060376169, 0.03879524785032576, 0.05291471774389757, 0.06191510849224606, 0.0935759757872374, 0.0977745292175951, 0.11564124650760363, 0.10011325696716072, 0.10846736084018774, 0.10954706326594266, 0.08719968545768975, 0.11801546673712242, 0.11190484738735663, 0.0964862563246754, 0.09225551891843764, 0.11743860479330916, 0.10613525515269619, 0.10156625044342105, 0.10918247885184235, 0.13544670392879, 0.13585837687936655, 0.15784823025832734, 0.15794530640482465, 0.18479597765486347, 0.21527350170148954, 0.21864551451628655, 0.27533276268387263, 0.27423680761192276, 0.3175297114570711, 0.31684027783349944, 0.32495952249811844, 0.31601121169013546, 0.3070967496653361, 0.32277453422597424, 0.3500281462250221, 0.3482152839316832, 0.35400940516434753, 0.38645489937761085, 0.36423573737427706, 0.3804304073354283, 0.391758708499983, 0.40699890927358334, 0.40974805671846903, 0.42518828672088443, 0.4357315081998928, 0.4466496648463586, 0.4660734931910555, 0.47129612829065737, 0.4862340639705183, 0.48068225434548334, 0.46037625712470076, 0.4853146374985763, 0.45465637547191345, 0.4238825361895947, 0.4483012490412426, 0.4601247820440893, 0.482918259764738, 0.5278947190590163]",False,0.8000,0.1000,0.5000,0.1000,0.2000,0.0100,2.0000
12,go,Hit,1,0.7900,"[0.0, 0.04251186312606374, 0.06649321052392806, 0.08279584758145223, 0.0680566127034597, 0.0658091100847462, 0.08602971670306074, 0.12273170661628025, 0.12161166951700428, 0.13434179835274151, 0.1344444402783676, 0.16896061167588186, 0.19171199846198994, 0.19444964414300803, 0.19310725990150512, 0.20652464128865589, 0.1769010034227131, 0.16091392673088553, 0.1721512822137991, 0.19954506553355275, 0.20074763909923535, 0.19734238901397902, 0.1990874321164868, 0.19166057104101025, 0.18832539467599826, 0.20316107446132184, 0.20891143390534928, 0.22542867170091352, 0.26299637981858986, 0.26549280256088736, 0.28859417673930376, 0.2672070988977377, 0.30479642072474855, 0.34005949479941944, 0.3489265216923721, 0.3408148222741712, 0.3699206994431926, 0.4142379801353436, 0.4283964323468615, 0.42777634689853455, 0.4086041107608939, 0.45573461143270216, 0.43898192237629086, 0.4010754063006057, 0.38164755413065693, 0.3792274297501109, 0.3831929948246024, 0.40602846728021924, 0.42709308746613267, 0.45224196695640956, 0.4504948551432503, 0.44620120153298964, 0.44479566008981664, 0.4461320719731317, 0.4288190048658382, 0.41581801223268455, 0.41033004830115727, 0.4353153523878911, 0.4297837674302728, 0.4382188196054616, 0.45807835649174167, 0.4665556000323006, 0.48160646458956735, 0.4849679859310708, 0.4813963811195671, 0.4567796412354419, 0.4499600470451772, 0.4544092350605743, 0.49192103270454557, 0.5119432477026258]",False,0.8000,0.1000,0.5000,0.1000,0.2000,0.0100,2.0000
13,nogo,Correct Rejection,0,2.0000,"[0.0, -0.00655416514548797, 0.017389235428701758, 0.017961397162609957, 0.03889252685362973, 0.033459289763599416, 0.027177673980927502, -0.009561538366852657, 0.00906123472508492, 0.0162288716276206, -0.005080453261150492, -0.004895639191755191, 0.02552894381635686, 0.036901603157480894, 0.022715310121536512, 0.012460753072016707, -0.0016081469292076878, 0.024384952176245377, 0.044902313101060146, 0.009417233818013529, -0.006282004792273109, 0.02740840247238544, 0.008875524108642657, 0.023176158610137408, 0.06920397601184408, 0.05022295020081198, 0.0413578806972516, 0.02225242682975052, -0.009031231710156056, 0.01837868753160477, 0.019631797674877022, 0.03508235471135986, 0.02079749148866148, 0.03864942853650298, 0.04463012486674353, 0.050949037134632884, 0.053893947059794514, 0.06128846047892412, 0.06086746922530394, 0.05115175572867141, 0.05545447187848596, 0.0666046366126637, 0.05752708537086559, 0.022014043621028455, 0.04810829472785996, 0.018664408167047276, 0.007389152376912365, 0.035447897909888934, 0.03970285686188764, 0.04578170531688787, 0.042839884431789474, 0.0445771613747343, 0.006626872688732202, -0.023210109858313604, -0.020617789136684113, -0.01529417282980939, 0.0073538415431006615, 0.018758683995161105, 0.057801106126014155, 0.07230920567437553, 0.08790331001360091, 0.07823724616906379, 0.0774418261310511, 0.10556156664541144, 0.08880231900432808, 0.09947802164302773, 0.06583952004346137, 0.09842674998405587, 0.11307006453125612, 0.11325281899405464, 0.11754603493333035, 0.12515074268839868, 0.11661694242063002, 0.0971169664953125, 0.10007464779349437, 0.0669181988264913, 0.12979837007631684, 0.1119859734992985, 0.09671503656256708, 0.09423556733701782, 0.0676102807973219, 0.06358843756952108, 0.016907533050239426, 0.035776694178847934, 0.006385658788120037, 0.005649193842461042, -0.030044131428360515, -0.041352951902001604, -0.06780648722741565, -0.08911963122539819, -0.10081077893462458, -0.13577246431732623, -0.1339778877316089, -0.1350321256105433, -0.10076785492373183, -0.1286894319507029, -0.10639508331843178, -0.12521346540464354, -0.07071498388357397, -0.07455844260807484, -0.08767732197433385, -0.10493516958936208, -0.12130641447832587, -0.14182872259662777, -0.16930697060749514, -0.11067116717846374, -0.07568993673527089, -0.07854893500773555, -0.06973377270081996, -0.06988391435073343, -0.04090332277721931, -0.06394496330368521, -0.05528065310160006, -0.06207993622665394, -0.08236088715368228, -0.06180135436480967, -0.07968926860895155, -0.07480715120668056, -0.08965261829871414, -0.10098556393811324, -0.12731918152276805, -0.13420531914213588, -0.11782122349268485, -0.121167528355968, -0.08307775732601168, -0.07448911007255189, -0.08506538136788958, -0.10506413407012966, -0.14361916768040062, -0.1622544434274857, -0.12623420222401865, -0.0920960078041217, -0.08058162745841162, -0.07019735313230888, -0.0792531971506346, -0.08694503418390667, -0.06280078924689675, -0.05323873057319595, -0.05215894632921213, -0.09556451592971615, -0.13309032760105355, -0.13239731202797056, -0.1361232033922989, -0.1465179464506149, -0.16445149650995508, -0.15737080384651742, -0.15414168820814708, -0.1429106974002643, -0.12263044763757347, -0.09715309910317858, -0.10510550877304424, -0.06688608348891986, -0.07075712232658658, -0.05347686285125374, -0.044095991412999955, -0.033245091617311345, -0.030051276653451503, -0.053980614126772186, -0.03421562944811062, -0.021333986408804913, -0.015099273278722293, 0.013895157489064799, 0.00990716537625122, 0.04257505375866853, 0.039545630920864897, 0.07314229356693014, 0.08018181498555058, 0.09077716919188158, 0.09287053788488694, 0.08198892671638265, 0.10223697600728915, 0.15067466352238382, 0.15983999404132615, 0.16442987517123703, 0.17361754377783384, 0.17243249801907554, 0.1566063091989997, 0.16213428616984876, 0.13396493374410895, 0.1344780905712858, 0.13351011219695738, 0.12474909114372239, 0.11378285624060108, 0.12181589093960195, 0.1413551139311121, 0.12506664055052652, 0.12100509690541351, 0.09099288260101909, 0.09952996670069389, 0.0750043236218538, 0.08405291650407283]",True,0.8000,0.1000,0.5000,0.1000,0.2000,0.0100,2.0000
14,nogo,Correct Rejection,0,2.0000,"[0.0, -0.029260637455584403, -0.02180380418793862, -0.017513012691914364, -0.03276851051191691, -0.03498181735150742, -0.04301507187628457, -0.05830705212839016, -0.06724407541948323, -0.04327403971860598, -0.027514611017455063, -0.007582709071183951, 0.003129156009463995, -0.0017091712615028894, -0.018624995534024413, -0.009136142582028462, -0.03545155851478327, -0.04318559649285758, -0.04394959924740447, -0.03262835534336743, -0.0910946640170846, -0.08834085767388737, -0.07703951040648833, -0.09110931326272526, -0.08930291912967897, -0.11906362278714429, -0.11304050765165768, -0.1122947882123245, -0.09008247032961683, -0.14903916232938536, -0.1573123972454421, -0.14895611782004067, -0.18489899936932724, -0.18963407535417653, -0.20788708189622448, -0.23251368632586145, -0.2392101507474948, -0.25722597405004133, -0.2530364431956429, -0.26177747891357533, -0.28698342642072233, -0.2695812880017974, -0.29123128996923425, -0.2618139378819943, -0.23994995352239007, -0.2163691679985919, -0.21914926607085586, -0.21606528396781596, -0.20273367751885904, -0.1863662199013639, -0.20644911951292472, -0.2654824757384019, -0.22781611801650914, -0.17335493456649248, -0.17802445611563097, -0.20131299161034266, -0.21230086649628993, -0.18833271725951328, -0.18859606013089578, -0.2096467679012073, -0.20849635148258236, -0.20004172775055734, -0.2067813958002263, -0.18427040116529242, -0.1786250464011587, -0.17672872897329922, -0.1772050547819407, -0.18712153108114848, -0.2037068467023862, -0.17650195183437759, -0.20396140674893862, -0.18188257210267972, -0.19954651188860492, -0.20901799538751484, -0.18348766667005972, -0.20159701994495138, -0.19764916242010627, -0.22096051146379503, -0.18417605279175395, -0.1953555159156655, -0.21814303979865673, -0.1978273196496102, -0.21853209354091435, -0.22552453158583877, -0.2066882112467219, -0.2534938527583551, -0.24644667613132415, -0.2843422779779912, -0.29673882445446825, -0.319538994923007, -0.29385002528921855, -0.309662154038875, -0.30475640461407166, -0.3031571083401885, -0.29589637045319256, -0.2888810490135401, -0.27436481494995446, -0.27142900041788576, -0.2961450080808949, -0.28139197382139575, -0.2760122825695339, -0.2853476937696116, -0.25853330429040067, -0.28957341008740517, -0.26089242764728915, -0.2731899442932671, -0.2734062918141544, -0.2998425142936036, -0.2973975772949246, -0.28241151537587494, -0.28002149954014766, -0.26080993834604005, -0.2562354950969334, -0.26789330541240075, -0.24452073023150647, -0.2683421017530664, -0.2536281626820129, -0.2586595872445171, -0.2660579762239705, -0.2516441951945514, -0.26834152960321633, -0.2315867863428406, -0.26418909863147255, -0.2527790171658172, -0.2265589188301599, -0.23324416890720207, -0.2513904417865745, -0.24253226628728777, -0.24252574711087102, -0.27452720547301385, -0.27445095052093976, -0.2573390979556085, -0.24171096151038773, -0.2190809122434474, -0.20467722009500694, -0.19276563018917572, -0.20859631189557726, -0.19090567964555655, -0.24425826071530662, -0.22957053896133905, -0.25477155592894973, -0.22568282439999093, -0.22824579830626957, -0.2263073805512141, -0.23828704113028173, -0.23126345591801586, -0.20609213187764217, -0.22078709136816577, -0.22565255218670324, -0.26098377609174994, -0.2807403769109622, -0.2967387773701089, -0.3027693558308262, -0.28562019484364, -0.25040654819683317, -0.3071674814664615, -0.3100024723272836, -0.3056823192123534, -0.30730171387116895, -0.31876520863080504, -0.29198394000133177, -0.26219134225701374, -0.24138622501330773, -0.23563605828933792, -0.24456787214709708, -0.256875127328288, -0.269749966005595, -0.2541072527721533, -0.28285243838785235, -0.2930357141292525, -0.3060229215386756, -0.3373994181393807, -0.3386433208075994, -0.30630841848401535, -0.29253312951160027, -0.2901105693076016, -0.2669853472101636, -0.2579549623698961, -0.2767780249030237, -0.2638488599628836, -0.29386229302067224, -0.3105888440136553, -0.3040305357497261, -0.3336178591338192, -0.34199102049280217, -0.3607483382305768, -0.32821227455576946, -0.35428864069978366, -0.3740932743379675, -0.3882816947323923, -0.4039221580090572]",True,0.8000,0.1000,0.5000,0.1000,0.2000,0.0100,2.0000
15,go,Hit,1,0.7300,"[0.0, 0.033750577435157164, 0.03396350867451586, 0.038193211412603185, 0.03360503909200053, 0.06381915619504885, 0.08295298925874411, 0.08783460035201686, 0.1146530101815585, 0.13189605191296272, 0.15817738369074638, 0.1328752376788767, 0.1447977838631857, 0.13372397648111978, 0.17346190105802806, 0.16564597146982077, 0.17643390227804312, 0.16941712999785194, 0.16519603105707714, 0.1896342140469382, 0.19841908720317986, 0.19315311523942202, 0.22196420248509613, 0.25869459882253376, 0.23785533310503698, 0.248456569337482, 0.24659480251721452, 0.237333519154447, 0.2446192254979997, 0.269112101124688, 0.29435099870146464, 0.2966453602436288, 0.28307709883686416, 0.30711006083760906, 0.29453186413820054, 0.31016312720843353, 0.34899411429743193, 0.3794927232830456, 0.3686913265237706, 0.3894131777439471, 0.3793986065996348, 0.37950620970736787, 0.37958054789957135, 0.39323483739566895, 0.38673356078744603, 0.4475378794654657, 0.4665045219310898, 0.48443016775759223, 0.48618040984844624, 0.4974006002313153, 0.49627120817050435, 0.491666790283007, 0.4930458337821635, 0.4911888933865061, 0.48306925005343937, 0.4611870486818559, 0.45743720461768006, 0.4204432423454706, 0.44634055448942367, 0.48995284099285974, 0.4944577814590655, 0.47612755265119144, 0.4731378213705893, 0.5012445177820208]",False,0.8000,0.1000,0.5000,0.1000,0.2000,0.0100,2.0000
16,go,Hit,1,0.8000,"[0.0, -0.023075986595290362, 0.020158654938830452, 0.022556286899163933, 0.03162794265298706, 0.04561941153604605, 0.06288333354091516, 0.046239462354345215, 0.07216571269359048, 0.07088322299636927, 0.06622488434027336, 0.09338844539645427, 0.10211484999889034, 0.1063554901245641, 0.11676981372292146, 0.09818414990628452, 0.12176355654067661, 0.12993474778367714, 0.1636001838073405, 0.1641246990243489, 0.15769158118495383, 0.1765561536660354, 0.19355063435493725, 0.19974034379941427, 0.20403421791662887, 0.23235526395733183, 0.23186080665277092, 0.23903902922679024, 0.274311121419913, 0.28705198064478576, 0.2565810084394255, 0.24971801071068625, 0.2792732728005455, 0.2788022073221508, 0.2755963778602839, 0.27535478409814557, 0.29310094959032373, 0.29972236622324, 0.3111038476364023, 0.29735274559634295, 0.3255953990646416, 0.3334397488042065, 0.3161307201090091, 0.32930117751971455, 0.3412277944784512, 0.3469180250100787, 0.31340545316352936, 0.32001237079156675, 0.33012537265942654, 0.34675759103475856, 0.3581583692126481, 0.326645126952161, 0.3204992568141145, 0.35262875540912786, 0.3749561930143276, 0.3930579358954757, 0.35516421862301, 0.34142361671120536, 0.343050720565344, 0.3503224063811685, 0.3491873085806714, 0.32854351706872664, 0.31896893515475244, 0.3386701986817529, 0.3435813844107398, 0.3823501960468119, 0.41839721245262373, 0.43825806089819586, 0.4522978956662174, 0.4817065611611895, 0.5513598221076039]",False,0.8000,0.1000,0.5000,0.1000,0.2000,0.0100,2.0000
17,go,Hit,1,1.3300,"[0.0, 0.01157688624215627, 0.004842247688079632, -0.007257915008511622, -0.012234980049778486, -0.03244125719448761, -0.03805380906665739, -0.035231683208447266, -0.052122424869765066, -0.014460600578743155, 0.0182630830783726, 0.024986633188336452, 0.021677907199617368, 0.002979917615810044, 0.010718609543348613, 0.02330920608701543, 0.031230548577670478, 0.01670942425032709, 0.003833381334866739, 0.03945940069220469, -0.00010337813479991548, 0.046921581919703484, 0.02114738024959162, 0.03644781096794781, 0.06494181763993426, 0.08254177927715567, 0.0884840071220883, 0.11126240765094192, 0.1391212043700763, 0.16992585922604542, 0.18276098344493164, 0.1743424645274874, 0.15638973463970832, 0.16417164863914602, 0.1670552878944539, 0.1783929307851856, 0.18472602534369192, 0.20608189270845573, 0.14588719870967576, 0.14320188008837637, 0.17228220740483094, 0.16824261328430526, 0.13220613377238793, 0.16768853124663113, 0.15039505710607617, 0.1770155157473056, 0.17413196142321388, 0.15245838459324193, 0.16010580527360843, 0.1590911855817513, 0.15176429589820714, 0.21489264333431085, 0.25682459119899304, 0.23574484702708207, 0.27124099795286677, 0.25015846542307274, 0.28095977239889647, 0.29185480837860195, 0.31325626307719023, 0.3349973095630018, 0.350467439011476, 0.3854995223633971, 0.35916564645286747, 0.359926808914553, 0.40796365207053054, 0.4251073596603113, 0.4174753488936987, 0.4327344992426845, 0.44365288521027996, 0.3954000028813596, 0.3885278928186987, 0.3788349392742118, 0.3851429579575449, 0.37509378224487133, 0.3495777070256794, 0.35986636749491197, 0.34285532033746474, 0.33586835265203685, 0.31708434922396767, 0.3007939976235976, 0.30154577536767707, 0.26846046453024236, 0.2761391984968857, 0.2831240487399756, 0.27832691560621153, 0.2519884516034196, 0.2627870912687223, 0.2756520639493396, 0.28355920387520683, 0.3070881398796827, 0.2560436623954406, 0.2769778881856496, 0.27717318255725243, 0.30797797350628286, 0.28727507208070924, 0.31005411303745345, 0.3054669691606551, 0.32895165484899586, 0.2960315818593803, 0.29269768497640414, 0.31115826773504773, 0.3297227097635051, 0.3239746453155765, 0.3254548552747178, 0.34482644017843334, 0.36120224750596525, 0.37630804809325463, 0.3747573586327941, 0.3543261494940933, 0.3618372004707363, 0.38534149040779514, 0.3893783025239406, 0.4248500243390487, 0.41921562581527716, 0.3642075206655191, 0.3675376382514891, 0.37074310039155334, 0.38886011961183115, 0.41631369352115566, 0.45420009050893495, 0.4635361086277413, 0.4949346462069654, 0.49811920561378137, 0.5174016247290941]",False,0.8000,0.1000,0.5000,0.1000,0.2000,0.0100,2.0000
18,go,Hit,1,0.4000,"[0.0, 0.005430951922227225, 0.005248719086314531, 0.0560659762962432, 0.04764126568712556, 0.07817589366990316, 0.11964270133007668, 0.14542671446051167, 0.19413852557082176, 0.20032914059754056, 0.1732651129041557, 0.1823184505986763, 0.18708847546154245, 0.19905346859229342, 0.21865080430261405, 0.24622611498282093, 0.28042671070219694, 0.33481500781837226, 0.36222922276075986, 0.41072700279965063, 0.39617614894433867, 0.37580797220252915, 0.39171225825279576, 0.40363689455577556, 0.4028157917547465, 0.4452816139802198, 0.4734128012568672, 0.4854898258853058, 0.4829685426238232, 0.49392648759243035, 0.523897024019278]",False,0.8000,0.1000,0.5000,0.1000,0.2000,0.0100,2.0000
19,go,Hit,1,0.4000,"[0.0, -0.005756428222265653, 0.006389156843686567, 0.01995510415077909, 0.07595693706811103, 0.08888647602158818, 0.08893365659445153, 0.1275898214899287, 0.1263613087172296, 0.13765825510524166, 0.15484672612509232, 0.18265533892487898, 0.16468781559172782, 0.1742996625042729, 0.20934099012784393, 0.22324278719968418, 0.26416893051159474, 0.2874377418396998, 0.30171963753916536, 0.31261579418302604, 0.30428727969389685, 0.3504632655375994, 0.4073182180636886, 0.4359679781595272, 0.45871131088389083, 0.4529378546196513, 0.4399531060169409, 0.43680988572561313, 0.47180622132290684, 0.4774002105849922, 0.5166855919104085]",False,0.8000,0.1000,0.5000,0.1000,0.2000,0.0100,2.0000
20,go,Hit,1,0.5600,"[0.0, -0.010119924057946792, 0.01582470860260051, 0.07364921520088583, 0.07482322616727163, 0.09993895727108701, 0.09303393145540086, 0.09588735522959944, 0.10801010188406518, 0.12558149680007394, 0.12075059194933416, 0.14950644831274415, 0.18521389289965343, 0.21469033435418786, 0.22540770686315523, 0.2296511134488032, 0.23174384570659778, 0.22206387283780882, 0.21922574004262263, 0.19149810968529435, 0.2540613358636841, 0.25217824046068843, 0.28264324748513175, 0.2477048803038738, 0.2376321277748004, 0.23110478857237557, 0.21294056667869252, 0.2247273518173464, 0.24590542405248558, 0.2796621407028003, 0.26910728189711947, 0.30546938262374623, 0.3446206717843793, 0.3531793567239613, 0.3681714033626009, 0.3523200228854268, 0.3699654210949036, 0.38014476396042485, 0.3820831400885335, 0.39654555451153967, 0.4196339582803448, 0.4308109874027535, 0.43661903692235604, 0.46541428940471247, 0.4887835555949588, 0.47962582226328493, 0.5309466193771658]",False,0.8000,0.1000,0.5000,0.1000,0.2000,0.0100,2.0000
21,go,Hit,1,0.6400,"[0.0, -0.0038905578208513793, 0.02211459881945935, 0.07558376195074483, 0.09880806963634184, 0.09976816978663056, 0.09284699875203829, 0.11369420829780696, 0.1297994742219174, 0.13667100640869104, 0.1601664273748878, 0.17444072239102906, 0.1656129781496183, 0.18464976741071973, 0.18246221839100307, 0.2137559949581601, 0.20686589596310573, 0.22127711845539966, 0.19728910632523197, 0.23635148198964467, 0.2767816386206584, 0.24544085483466963, 0.22882328156600354, 0.2548854558912156, 0.2572127954936806, 0.2624555806340547, 0.25995923569785334, 0.2844453208455427, 0.28930712520315516, 0.3176171956361087, 0.32824121296571596, 0.3559541678692284, 0.3612827044685659, 0.3559691895694905, 0.318113778218842, 0.33637001519846466, 0.31596838857365334, 0.33212902040632686, 0.3693822829806614, 0.3957088697054067, 0.4140156207222637, 0.4017044078200562, 0.39884803436373467, 0.42268129316755526, 0.43892697407801273, 0.44804148774012553, 0.40751693600505673, 0.43188574379422606, 0.4461552558606137, 0.46870653110460625, 0.4908713961171276, 0.48959216557936497, 0.4901840681327859, 0.48803539518352074, 0.537212593339239]",False,0.8000,0.1000,0.5000,0.1000,0.2000,0.0100,2.0000
22,go,Hit,1,0.8200,"[0.0, 0.008273431106240342, 0.019862322799730357, 0.03033115219741856, 0.008555047357706926, 0.0034790372822942565, 0.027432169548484014, 0.03288754769153657, 0.042500212384516775, 0.035214222728687676, 0.06628964585127829, 0.06838720115896162, 0.060152817830123106, 0.06384411391957111, 0.06925833326540212, 0.06428366687953622, 0.07508572300983304, 0.07361470754425774, 0.08433319878414104, 0.11336957601518305, 0.09983848430462189, 0.09878986863832895, 0.09715748728899153, 0.12413613437965265, 0.08073555774453806, 0.08147470664821065, 0.08354988374148845, 0.1263547481314399, 0.12449857465645246, 0.12284830799110598, 0.16279922237948108, 0.2045392212001593, 0.2054760314966113, 0.214828928439445, 0.22942982896922426, 0.20496129989537132, 0.21528661702768553, 0.23104020085047292, 0.22742549623800756, 0.2394638680539626, 0.2859428098394358, 0.276154494189389, 0.29208472110242717, 0.3112056946866902, 0.30522477693317995, 0.3130518516581501, 0.3209671657590501, 0.3325892183606988, 0.35865859497627345, 0.35326171654763483, 0.36615856372923455, 0.3491552358040448, 0.41070973612361383, 0.448550125404713, 0.4248111453608747, 0.40817326384894026, 0.3692497592954327, 0.3471137580080289, 0.3458810600717065, 0.3671912556045146, 0.36911358422427404, 0.3676865242002785, 0.412934173065297, 0.4182502968057788, 0.41090544274940627, 0.4004592444517088, 0.4233706357750365, 0.4515498130630439, 0.4653114746291922, 0.46113831143774103, 0.49444879332696534, 0.4896463458515571, 0.5064719131896233]",False,0.8000,0.1000,0.5000,0.1000,0.2000,0.0100,2.0000
23,go,Hit,1,0.6900,"[0.0, -0.0226381291257792, -0.019538006688417882, 0.005028748186157561, -0.0032784510194662497, -0.011542080051933176, 0.010027261442409664, 0.034598984322095835, 0.018472997513775527, 0.03324372330165627, 0.04012171807832344, 0.05725396529485642, 0.02905713677275782, 0.05267071488082541, 0.08397098775612755, 0.14993413139940096, 0.18048706354482077, 0.16560053581164524, 0.16145118219960108, 0.1695159261583344, 0.20524782504671318, 0.21070319273892207, 0.24496307026501857, 0.28383375124615434, 0.307911503356147, 0.3137422211713035, 0.30085192184858456, 0.27981833996831207, 0.2643964488716147, 0.233794161082972, 0.23654209347411018, 0.22775777370823067, 0.21077902955608585, 0.2493730684730503, 0.2679849930609434, 0.28280371482827793, 0.27249874172516986, 0.2733260448165348, 0.2843172641468687, 0.34352497476560884, 0.34873500858248546, 0.3393267550826115, 0.3865785578750322, 0.3744908565126973, 0.3698904750933981, 0.42535033581995396, 0.47618945770951376, 0.47410283530310127, 0.44458708247943146, 0.4276925072954703, 0.4691128451377375, 0.4573433748874432, 0.4401612383830285, 0.42928406570687344, 0.46265442365697423, 0.4466788622776252, 0.4431988787029815, 0.45645553465200345, 0.49054959219720246, 0.5010288406941859]",False,0.8000,0.1000,0.5000,0.1000,0.2000,0.0100,2.0000
24,nogo,False Alarm,1,1.6200,"[0.0, 0.030955346048671863, 0.008077139339445188, 0.019904898899989372, 0.01719960772622638, 0.004553431429194387, 0.014421605228810155, -0.014350242277540701, -0.026480297022134246, -0.024171670385486326, 0.02890243229177542, 0.044991377518084304, -0.007261949409067478, 0.00363488267573674, -0.011388039515668412, -0.004512432001935748, -0.01309367323176825, -0.000845662474859555, -0.020153309984403844, -0.04791128570236629, -0.06983480392614444, -0.06110498800362154, -0.036253944498185295, -0.01703462709263498, 0.00020796467026329077, -0.023778319734915912, -0.03289674486117435, -0.058548953811144264, -0.05511093272806455, -0.02195465811305907, -0.023687191065220523, -0.019660080110458677, -0.008845091059832947, -0.016214542596579517, -0.04053652403216955, -0.039221267974699374, -0.028170706825613644, -0.027475588764683007, -0.03683558973200814, -0.05962945681489221, -0.058118062485766384, -0.042624798419171314, -0.07458224887147424, -0.09000711032779572, -0.06196055286393693, -0.06393452629384803, -0.05122194367663685, -0.05207474736869746, -0.07276614157265596, -0.04095552758099964, -0.06129218019695146, -0.07082708489884547, -0.05961820651014784, -0.06469211765580975, -0.06596275305456685, -0.04154124454713457, -0.03878712292554137, -0.027058054322659945, -0.014258057672150071, -0.0037075146735335816, 0.0237023617308598, 0.016053322954893604, 0.007284539080232357, 0.01967892248168262, -0.021246361866159323, -0.029794058990295077, 0.003636527134134971, 0.030423453300042706, 0.036119611006535636, 0.05175478457112173, 0.042447199334789514, 0.006213409238253961, 0.043235130298995866, 0.05665689147825455, 0.04706984998757342, 0.05439178171909729, 0.06222584727552283, 0.0914898510623481, 0.09436737120296192, 0.06733318655446256, 0.049412482752506565, 0.044234271786377385, 0.05775233080268047, 0.05417608870879221, 0.05289625749537868, 0.05481045695581808, 0.06730982720817619, 0.062113103809696105, 0.06507116454141472, 0.09842145543549763, 0.11178129182897074, 0.09778273458784287, 0.10208453166324036, 0.12231165068944394, 0.1318769469625318, 0.15263174786055866, 0.18343573196432117, 0.19442674436969426, 0.25083814961371387, 0.24560910243309247, 0.2602187661517361, 0.2487638945922686, 0.23407984944064114, 0.23249973900920032, 0.21430259583327113, 0.24735117091277242, 0.27734853449256, 0.3271521156938932, 0.32050044602340405, 0.3408123175036082, 0.33176264000031824, 0.2989990992164128, 0.292976039853865, 0.31549554624196424, 0.2961060723129243, 0.3232310526144314, 0.3449073300696666, 0.3382771938126569, 0.33344269533054605, 0.3011014919655479, 0.28304490819136807, 0.23005448665205114, 0.24757953849243047, 0.26686764486155556, 0.2911179871964091, 0.28611400961472794, 0.28409765491533284, 0.28078567254950737, 0.30945946062667273, 0.305870499373809, 0.3058480999896978, 0.3119206362724136, 0.3300132374037567, 0.3116326682990933, 0.32904846797555076, 0.3226058855317256, 0.3080621908727622, 0.3185017973894441, 0.3478590683130245, 0.3754137274764191, 0.4009368996908992, 0.4072592112195169, 0.4139051038206691, 0.4131413553743947, 0.4503436067740306, 0.458757686630997, 0.48511484443696323, 0.4998171339522927, 0.48847420332464897, 0.49519613660862644, 0.48397345511206724, 0.4862693390054569, 0.5019219818368821]",False,0.8000,0.1000,0.5000,0.1000,0.2000,0.0100,2.0000
25,nogo,Correct Rejection,0,2.0000,"[0.0, 0.003460715525133086, 0.007956193150540322, -0.008264239015762913, 0.009205576599445845, 0.01699075529968229, 0.04081551061160274, 0.05671441649639025, 0.03192312504189243, 0.05045750471735875, 0.039983546104937984, 0.03753343869881249, 0.04569210755015567, 0.016284759500040373, -0.022442749710332825, -0.02610552873741666, 0.0037141309871183553, 0.04277414590274476, 0.044234559840541636, 0.05694426219329304, 0.06417308425467304, 0.048511766694249586, 0.06930358249480115, 0.0760854614069342, 0.08901685755459512, 0.07714788088415463, 0.07529411285700471, 0.13800252901780657, 0.16417697425496414, 0.1911592418934431, 0.18252823301649534, 0.18346624481713053, 0.16369268846578874, 0.14705124376319972, 0.14247001456136468, 0.11576283166569466, 0.0709546479201344, 0.07700490708037307, 0.08380787591032866, 0.05521453465712146, 0.04649031031971127, 0.03620443602938808, 0.04876370899888022, 0.04178353621673672, 0.036239722088769, 0.04510299896155345, 0.048778283217350296, 0.044862237868259214, 0.039914595916686404, 0.016914389328886194, 0.01880222636714194, -0.0011116305331916668, -0.003081545318195467, -0.0021991654596926, 0.028625958433333872, 0.04404128367764909, 0.043682755397206535, 0.04176004233824797, 0.043366610615065734, 0.017722179414680926, 0.01024903158326693, 0.010970350229377783, 0.019480017529117225, 0.011836177663812392, -0.007362307542019593, -0.02320190936367307, 0.009872375071031905, 0.033186038571406305, 0.055471371100544856, 0.03389236225331839, 0.0565163579259762, 0.05163561708927951, 0.09550535798195023, 0.07925039625210002, 0.07799765130865276, 0.0963249316760242, 0.11962549752246378, 0.10529265850183557, 0.10862361568293315, 0.13200338340760367, 0.11473611535673083, 0.10446811177201064, 0.12792557103600533, 0.13001752277481277, 0.09868346166522918, 0.12875659065262843, 0.12674997108040562, 0.15423430085243492, 0.11130406049866559, 0.09767973922962529, 0.10658765787471691, 0.1210908461258996, 0.12191857281441311, 0.13962442726385083, 0.15267058641275316, 0.1253532918868441, 0.1553831806845953, 0.1693713856873161, 0.14825816590492497, 0.15402734231342213, 0.1558622977940249, 0.1691131890718207, 0.12810099696349947, 0.08092870683765302, 0.04552261536401242, 0.04446621230621989, 0.036612228592016016, 0.043820149044769476, 0.03444812376026275, 0.03859804657580976, 0.06697829183055369, 0.07534145020227828, 0.08306566468097974, 0.0820702480102089, 0.06498858623286315, 0.061094638362699204, 0.05587860819085722, 0.06764933628814593, 0.06628443092936505, 0.0668433491626889, 0.05820321139809678, 0.03825271297791591, 0.034406515146102934, 0.033851163869842715, 0.051960371578337425, 0.07910776091084407, 0.0976455462659318, 0.0908304451861048, 0.08787945481607784, 0.08807964173627839, 0.11946637048931515, 0.14377388517766512, 0.11545788866338191, 0.11528455886179612, 0.10401746573604691, 0.11735876238067186, 0.1007509314842726, 0.11053923181186039, 0.11872988563112141, 0.10959426595342567, 0.11563224034398223, 0.11670205168404514, 0.11489239245251152, 0.11771062762266608, 0.13089008598645546, 0.13285801256068924, 0.09978857688451931, 0.07070708371296494, 0.07352159169773212, 0.09450909985771241, 0.0994675685301611, 0.10815750584182697, 0.13493153257348692, 0.1424900551794374, 0.1392878169098981, 0.13748020223543378, 0.12835088453977964, 0.09365237204216689, 0.08968542003284555, 0.07690718900650563, 0.07682297470180091, 0.0868951013540862, 0.0804584448627076, 0.06905746462181342, 0.04680476245692429, 0.07587442255997144, 0.04878618076956403, 0.03645728714368361, 0.033554169135011636, -0.0070839069304068775, -0.03792323229122527, -0.03797688676442799, -0.03912887176515092, -0.06580365262730162, -0.05762011822712861, -0.053822898978105715, -0.05421690900336542, -0.052203901822802205, -0.021872044468286563, -0.0259486796511939, -0.04987483501912846, -0.07843063714086237, -0.07629529029196916, -0.08089553214801509, -0.06605201959419907, -0.06412169259159557, -0.07836068515016112, -0.08481432539319173, -0.04149194781632184, -0.004873506179117297, 0.017605893674679962]",True,0.8000,0.1000,0.5000,0.1000,0.2000,0.0100,2.0000
26,go,Hit,1,0.7900,"[0.0, 0.02050583714358524, 0.018084193906641514, 0.016620043923345564, 0.023160724031806423, -0.015788874489682813, -0.02845744032786413, -0.03987338666659011, -0.04372927355414193, -0.07293605882337001, -0.058251082142818385, -0.05796121347399763, -0.03635074253465875, -0.02872039684258964, -0.007925979303097044, 0.01489573411635418, 0.03054219680030127, 0.037667465922137766, 0.05483783346918575, 0.11236749827594528, 0.10264598895236131, 0.10259037564206946, 0.13490222735901297, 0.1691726906930787, 0.17897399680494241, 0.183353878484618, 0.19796133652890746, 0.2035135179861603, 0.153078216751693, 0.16786892492556288, 0.1806966048734069, 0.19128760681827134, 0.21061974721835267, 0.19771482036811308, 0.19268508958049252, 0.1914853606089499, 0.1962484322144433, 0.19217746203729447, 0.1793773928958915, 0.17322127704829982, 0.18515132357200145, 0.20042155681048818, 0.19914305105771027, 0.21549767646011053, 0.2452341305221331, 0.24210961926780553, 0.23210804931847018, 0.24376314155074807, 0.2630011607430886, 0.27088904610433623, 0.31144922537513137, 0.32194253074494933, 0.3146893691625841, 0.30351353309355056, 0.3112604088898381, 0.32284802966343046, 0.34143371222602853, 0.36118599057895173, 0.4050016931869418, 0.40444388892542277, 0.4252241354270018, 0.4388367492299922, 0.45420094597746535, 0.4872746003677751, 0.48965668380609484, 0.472900749473372, 0.49721878531017544, 0.48842635027120723, 0.4654557536948612, 0.5118666769403583]",False,0.8000,0.1000,0.5000,0.1000,0.2000,0.0100,2.0000
27,nogo,Correct Rejection,0,2.0000,"[0.0, -0.009108325824906014, 0.020160910211922997, 0.015833010371263893, 0.006084087913452021, 0.012308313072490258, 0.003632487962711097, -0.030654283226006857, -0.030372572348096885, -0.02213277003195896, -0.015654618023730565, -0.003891545323493239, -0.03327739730202102, -0.031811196234239204, -0.02502318353059736, -0.017461923365222617, 0.013682005710843746, 0.03158876606583327, 0.04519519287750749, 0.0358822243326621, 0.06786954274297478, 0.1323050039006138, 0.14846632521263142, 0.1294140200266987, 0.09926301070852138, 0.08878840554864663, 0.09077183147591418, 0.08391193720188087, 0.051664956056394255, 0.06119739508125084, 0.10768951625625645, 0.1296987992461351, 0.12203846949703899, 0.11836400363719496, 0.13891758541865398, 0.13918597602302243, 0.08968690371983631, 0.09415748838126309, 0.10966642052301423, 0.08163249305944009, 0.10829643977620784, 0.09847896966526436, 0.07629116274960812, 0.08678344810449208, 0.06948167425201815, 0.04039542690909502, 0.024050731049620407, 0.049466118352962066, 0.03790363473575359, 0.03023440267954508, 0.013363531237776536, 0.044609981574386656, 0.05173579076000289, 0.042832753357739436, 0.019783790768683737, 0.026152855207132637, -0.016722856956252, -0.008965272950507818, -0.022727446519818496, -0.05383479233530125, -0.05759635589552361, -0.06062839317376198, -0.06412227323357063, -0.05192376751042519, -0.03873207880266905, -0.044712639431578674, -0.052337529714977356, -0.06981500843653779, -0.0951655728499696, -0.0792820794879979, -0.064986176022137, -0.05459578244635771, -0.06255861969008743, -0.05374250411842109, -0.012534959205778212, -0.011930378924938227, -0.012756171380040659, -0.010686815280543587, -0.026598325588037344, -0.0032157457359503865, 0.01313723626313746, 0.015794269804575337, 0.0034969595692637377, -0.0010387749098461352, -0.030459810541222734, -0.02197952549640595, -0.0003831965506426588, 0.0070909093931518525, -0.0018280192334112367, 0.02486769691244141, 0.0403401411848186, 0.047402034600923716, 0.0443975249677601, 0.029082127175177976, 0.05298351160728294, 0.04380575925713086, 0.017343360284171844, 0.02574842930327112, 0.015693754708372996, 0.02448627271082409, 0.03438121077818122, 0.02124311116744467, 0.032307474414488675, 0.020619249626429983, 0.02339296220514192, -0.006703418058346074, -0.008796577822068797, -0.03168413453125194, -0.02077696799648099, -0.03725893998772864, -0.014690674815949996, 0.0007590004535104247, 0.009239435005747565, 0.02659995023072785, 0.021310843223670675, 0.02513638599666784, 0.02463776831705212, 0.012648849486805898, 0.015166590910993491, -0.014318187703550362, 0.008612817024056, -0.0111524416892368, -0.009276849128279618, -0.01592154024949101, -0.03976548337318315, -0.04663339811335784, -0.06894188429445453, -0.0951223499479543, -0.11421165703526198, -0.09745641421505583, -0.09319681838320326, -0.09903756965099261, -0.06863764339331917, -0.08910080489565005, -0.09277577371508113, -0.10476953544606715, -0.08302160397495656, -0.09798294390927699, -0.1072838170391507, -0.07956945882030343, -0.06985634858168137, -0.06481702003411532, -0.05244133032137686, -0.06649092690351223, -0.08607063646450483, -0.12040769682268486, -0.14367091675266463, -0.14264499635014247, -0.15809690668234266, -0.1540393374287975, -0.1593333138765291, -0.1491099383333482, -0.16057081265311562, -0.11975188142132294, -0.10664222635703619, -0.0923251876369244, -0.10693104034752612, -0.0924220341205175, -0.12494781050949871, -0.1150979350576494, -0.1291695385933382, -0.12492556836458507, -0.1385575368248178, -0.12104896088403036, -0.13926035384062613, -0.16063595953820056, -0.18968815592128313, -0.19880680588457292, -0.19837173441934802, -0.18855314836099354, -0.1948951759171894, -0.19107248757001158, -0.17474752128572205, -0.18295446190184708, -0.16974373144204755, -0.15195692666343175, -0.15694951372622043, -0.15634906187321856, -0.15495475452068327, -0.15629484352831738, -0.18897530061322473, -0.21519930450769625, -0.22563620580213864, -0.2544310460073041, -0.24029287816996375, -0.2503408826688102, -0.2300985289735885, -0.19984640545956284, -0.2055440709358003, -0.20732691461035463, -0.2446309888457867]",True,0.8000,0.1000,0.5000,0.1000,0.2000,0.0100,2.0000
28,go,Hit,1,0.6100,"[0.0, 0.0021483085402292075, 0.027282950116292958, 0.02777885664878897, 0.021366792878432007, 0.03791590217645434, 0.05671254208547906, 0.07011302798170835, 0.10369799189609441, 0.08691034766468309, 0.08605956208959446, 0.09704045871062425, 0.11676914462200373, 0.09983266632691054, 0.16338723727796478, 0.18755542534659692, 0.17985585623349526, 0.21676848420595546, 0.19197044230736077, 0.18645179788302066, 0.19579011168316612, 0.2454591748357034, 0.24208892312988614, 0.22816046840818277, 0.2523224001937897, 0.25690174024995577, 0.2447493586256861, 0.25197480978151443, 0.2913490662675791, 0.3124799051496902, 0.31773316390104644, 0.3264034809310458, 0.33408672413383145, 0.3472047079566855, 0.34385875385930853, 0.3679607829030038, 0.36148881096763374, 0.3705692033852661, 0.40077899875927636, 0.39858867623365085, 0.43267767481911457, 0.45073516674348435, 0.4585483379159108, 0.4882090892293322, 0.49099291881002455, 0.45828864837987887, 0.43428729754018014, 0.4795983079565853, 0.4693535235450991, 0.48958528466748696, 0.4965279349505861, 0.5013467428694823]",False,0.8000,0.1000,0.5000,0.1000,0.2000,0.0100,2.0000
29,nogo,Correct Rejection,0,2.0000,"[0.0, 0.025442978666807153, 0.02778163341318698, 0.06758010173970806, 0.059496787570535226, 0.05621197216674798, 0.05752175894150883, 0.05007289964480522, 0.03199865221394796, 0.04954998870611703, 0.050959332474817376, 0.0553075591631407, 0.03715891491717588, 0.03113835816899427, 0.04206170476613788, 0.01804414719566081, 0.017440399533334927, 0.05029368396480457, 0.05882942416958373, 0.027088307477358325, 0.020959449156930283, 0.00991282940977913, -0.031065306232257853, -0.05600950542645168, -0.025218785694620015, -0.010260246163189466, 0.009883592936338306, -0.02238084965674966, -0.01570744394615689, -0.005007096388480256, -0.008924823821802326, 0.02721865432488435, 0.02990484890193225, 0.024648234616248287, 0.026789678641693983, 0.009914640815953286, 0.018112698656033016, 0.012904639254184606, 0.0394821343426868, 0.014194801664382407, 0.018884233345596402, 0.022839856464590733, 0.04031976541024972, 0.016635076936622226, 0.008523861529580377, -0.020925059585240716, -0.053843315105249256, -0.05555641288161581, -0.046837306133882914, -0.03545759600974837, -3.643559922378997e-05, -0.008430159301563609, -0.0013233871513644345, 0.012292543762293214, 0.032949821274511265, 0.04892942992295624, 0.012382651152269254, 0.033165218785075626, 0.020550837562040625, 0.015327777724773554, 0.013717568135804447, 0.0462724235180884, 0.029993918956668482, 0.008575665637502911, 0.0034938559433837432, 0.0067446952542136104, 0.0007146542150123945, 0.004743290969046345, 0.044705967777367614, 0.05065970042294301, 0.06186477189627651, 0.054363663521503416, 0.07227938726432602, 0.10468514103030033, 0.11256961831178287, 0.08894019764272597, 0.12392496548050991, 0.09599332278417402, 0.12654388241223355, 0.09702034787372306, 0.07041914386640646, 0.09191878745278972, 0.08231035776605834, 0.11289750066294323, 0.07449197483812112, 0.04259657010051567, 0.06242509699875037, 0.0847596644894964, 0.06557383808727488, 0.08007185163940692, 0.10733762656359326, 0.08797114732510661, 0.0722210909973414, 0.055957564503976244, 0.06332533503364408, 0.06586314029284049, 0.09028052024509153, 0.09640500140244554, 0.05430976303157076, 0.1021124942193828, 0.12827489735360326, 0.1299456881502365, 0.13148581152596836, 0.10961022704326172, 0.1407052270956108, 0.1231608791039841, 0.12382066776332899, 0.13767726198633035, 0.150540582134275, 0.15149929351398453, 0.13196608936633256, 0.15473841927258308, 0.1274190377075613, 0.15668366286240945, 0.1718642704185483, 0.18499790205880043, 0.1503936400571981, 0.1650827649399058, 0.1702467341794208, 0.13839813072691398, 0.169362180785281, 0.16921769239248532, 0.18828169288640947, 0.208462789604337, 0.22417640934187735, 0.20587652950162674, 0.21358173827226618, 0.22595531419569512, 0.21820364444618062, 0.1890814294545299, 0.1840422497649883, 0.19426043049488126, 0.23653927600597552, 0.25124512366748414, 0.2549243348616896, 0.26854913094918104, 0.27885587753058216, 0.2812087660429829, 0.2785563142698359, 0.3180214697056565, 0.3298730839336851, 0.31531502265112205, 0.3551006025559621, 0.31060926802343203, 0.33699805007027855, 0.3108175380742306, 0.30995337400572087, 0.33926846104128205, 0.32338618752434634, 0.3228240976148692, 0.30567071722917366, 0.3410374184885032, 0.32984390709816835, 0.31101214524722254, 0.3144213245609182, 0.3129046591656272, 0.27854079521059844, 0.26201211740094643, 0.2350382061657047, 0.24021572828499582, 0.25917890437197044, 0.2771058525273209, 0.27704088615941735, 0.26132478453422514, 0.2981475203100184, 0.31084805302908436, 0.3429385200979291, 0.36044449459241135, 0.36426911089345343, 0.3727049131080711, 0.36062771011303096, 0.3681937126008759, 0.3618407620683712, 0.36736720274094653, 0.3660174082743062, 0.41120764281496314, 0.40322663686398935, 0.41164110872017406, 0.4219361719446555, 0.41686304771146565, 0.43109458373503073, 0.43214432087437155, 0.39499342646872077, 0.41117771398181807, 0.409964800043899, 0.40196168600863913, 0.3669106764954083, 0.3513146858241118, 0.340762796682677, 0.36035810874711455, 0.3449096602798055]",True,0.8000,0.1000,0.5000,0.1000,0.2000,0.0100,2.0000
30,nogo,Correct Rejection,0,2.0000,"[0.0, 0.03999629097857228, 0.03495744585213946, 0.04921524667442577, 0.03379178095930235, 0.03495914816994421, 0.02430076816836801, 0.02691760010257595, 0.01804625392715943, -0.0015803489492718405, 0.004252952509863409, -0.013050340398631486, -0.012921159921987656, 0.009499271404066997, 0.01871616185638713, 0.041185225258591404, 0.04981860120677111, 0.04923387219403391, 0.064773500911671, 0.05920405624107938, 0.06397491305700195, 0.06326364247215126, 0.05248941587816919, 0.028498154780854466, 0.027141129681850538, 0.018686485742479508, 0.043993541587622795, 0.04636869465074722, 0.028965589845514943, 0.05269888789161102, 0.05092522499422707, 0.027052006575132247, 0.07953385569716535, 0.0820559408174763, 0.10331994303592307, 0.06967043088465034, 0.05521781350036249, 0.02851728706636673, 0.048213729939855406, 0.03889795076136293, 0.040247001342062404, 0.03425260394640714, 0.02739655162451094, 0.019266246064833306, 1.6215321197176474e-05, 0.0006939682612433364, -0.04162472711501961, -0.0388906210788315, -0.02905566087412123, 0.015426969111323761, 0.036744134928553246, 0.020873813599831585, -0.0025092678619033013, -0.003089706946954899, -0.0069777153471765035, 0.0011937584048923155, 0.033135851502470386, 0.024227592969401093, 0.020597057399344577, 0.02141115657662035, -0.008207965788038209, 0.005428568808465949, 0.022471961083594796, 0.0028485433860421655, 0.03617583261995291, 0.06772860680801307, 0.04050261939736023, 0.05730224503374232, 0.04873608028735174, 0.031151857377853816, 0.041291480216292704, 0.018790486284332348, 0.034955023083912726, 0.03520840590434915, 0.04223155492797506, 0.028405005651043404, 0.018532747690922596, 0.03202165876359716, 0.04623018671920955, 0.03102728373326423, 0.009914926417796868, 0.04448023749328077, 0.08787752299831372, 0.05977526277273397, 0.09467217510659404, 0.09744102909664862, 0.06265679888862541, 0.06796944023320516, 0.05081703102018605, 0.035819032630437585, 0.030719839961162534, 0.014138930070804027, 0.024636603319464163, 0.052648379147914204, 0.07042384868854833, 0.05325574098194399, 0.05578736275861655, 0.04564649114392058, 0.05017511254482073, 0.05079565089452564, 0.03570290000564545, 0.03817513161762275, 0.01003309015025466, 0.00048432738159771317, -0.016997027467935154, -0.040704025229329484, -0.06069381374138468, -0.06383561961762828, -0.07592864878490943, -0.091740367691386, -0.10993189346053847, -0.08991209038242655, -0.05634102687533044, -0.08424553650659983, -0.09440691031026338, -0.12382415001076637, -0.14442127045822262, -0.1562826446345929, -0.18381997914447784, -0.18925186978997605, -0.2293484300953362, -0.23207187836047952, -0.2559581175414536, -0.24842027094791896, -0.25431311990245326, -0.2422046177102456, -0.2318895738568463, -0.2539090908396287, -0.20770167774735157, -0.19014436002903926, -0.17722572148933374, -0.17887858949292143, -0.18582635161542344, -0.17195401878782002, -0.18860346473441691, -0.19777947573117605, -0.1683122801833613, -0.16266289474189524, -0.18906021123001315, -0.18935135900002856, -0.18645752035786695, -0.17331847120751182, -0.16575128712456233, -0.1635578994592558, -0.15523729932372823, -0.1573961874710958, -0.1711853634011134, -0.16026065086842906, -0.1407844013096582, -0.1360450998545549, -0.1552063710084676, -0.18626466237806202, -0.21785084029895188, -0.23175307337897863, -0.22492826400935, -0.23395051389962365, -0.21473921024376064, -0.20489549868406115, -0.2073157437445488, -0.21659143502509937, -0.22854768619102633, -0.24676143012648644, -0.25201679333343996, -0.26049787799263924, -0.26637007416117425, -0.2625239091153512, -0.23055343807381978, -0.23239786997589915, -0.2589251901180201, -0.25968733049017945, -0.25299419884121965, -0.268689540959703, -0.24183811489887336, -0.2328386101857339, -0.22174376927215902, -0.21349405239210967, -0.2576505900058809, -0.24088010455213132, -0.24986177698052237, -0.26760078812767873, -0.2911886820698383, -0.29179564980585165, -0.26802216350535035, -0.28611443205231996, -0.27969404087080696, -0.29888199038841523, -0.3124582417097783, -0.2999282429272672, -0.28670260309588896, -0.2755453511119656, -0.28726745051544256]",True,0.8000,0.1000,0.5000,0.1000,0.2000,0.0100,2.0000
31,go,Hit,1,1.1900,"[0.0, 0.007955507240264868, 0.00825239193483316, 0.004022434230588817, 0.009889504008697005, -0.01650804466148442, -0.014655351145738474, -0.02596807819983702, -0.0009151762255621039, 0.006225496640840178, 0.03401343589300371, 0.05749677340003823, 0.046802077629414345, 0.05721746775723088, 0.011371193580790716, 0.0304530377527586, -0.009998081040679722, 0.004490568875577795, 0.02244709281089643, 0.028264949428642654, 0.03221487215485206, 0.03169830139444858, 0.03547831526312603, 0.04644878417089977, 0.039188213987170935, 0.05118541796889249, 0.0648564846694546, 0.07073828591004576, 0.09506607295308653, 0.09403059612367362, 0.1082180216764992, 0.11763179156553702, 0.17003362069986694, 0.15984647362786, 0.16650411451578143, 0.14617954608945122, 0.14059894340169798, 0.12527722198226227, 0.1804896922216172, 0.20596930365759505, 0.20394335564291818, 0.18431206434991548, 0.16980711019769607, 0.1485601777393537, 0.15064076288786213, 0.17803022882481162, 0.19012492062455627, 0.19800774181444442, 0.1710333993999379, 0.13908297003118997, 0.15476754983551597, 0.1501516326484075, 0.15808230063750678, 0.14786046085232238, 0.1756903804245754, 0.19732634674282495, 0.2009811333262116, 0.19458634571297392, 0.21041677864116776, 0.20964675973016159, 0.17531657253336036, 0.1873568483985488, 0.19704887208542288, 0.22234204186837192, 0.22639817725833616, 0.235533651996968, 0.2597198307656026, 0.26757236279314833, 0.2712787498162974, 0.26539737807519254, 0.23989723881427194, 0.22479518923107364, 0.20674297746052278, 0.23697875586052325, 0.2399465469925415, 0.23661157339003208, 0.238105589427895, 0.27858406806388536, 0.2625936403257503, 0.26901846491760306, 0.24372288782805374, 0.25048113500170827, 0.22282304698587987, 0.2266150108558404, 0.22101027770812154, 0.2241035987017897, 0.23915952198022472, 0.26477063683715385, 0.25699077366042955, 0.28715577487465377, 0.29364751976020376, 0.33059401618084866, 0.3293762811312862, 0.3173189753664858, 0.29173550476414534, 0.2776362371203503, 0.2973057053595529, 0.2975096067509801, 0.3358111689026345, 0.3420211601824437, 0.36335068393153236, 0.3584817326661874, 0.35926064626263376, 0.37481560199436065, 0.3965543313407671, 0.41216671342412586, 0.44891994829725057, 0.4759913663268657, 0.4863373377803984, 0.5041744583735522]",False,0.8000,0.1000,0.5000,0.1000,0.2000,0.0100,2.0000
32,go,Hit,1,0.6800,"[0.0, 0.03406211475733494, 0.02762001596319306, -0.005452410637449844, 0.012532073205417927, 0.03251628925516471, 0.04572548113763658, 0.0765511338643436, 0.08522708512248582, 0.1669361630017686, 0.17442328922881487, 0.1678095430619115, 0.20620364314740863, 0.1866025768100186, 0.18915782646064175, 0.21646124780520704, 0.25540489042626235, 0.2623022676251363, 0.28080818379399347, 0.2834893809962032, 0.26419437553095176, 0.2687107705203747, 0.2426373980277933, 0.2756086984553757, 0.28532761270452356, 0.29652930170149266, 0.3376693954596473, 0.3900146704693931, 0.3809810764221435, 0.3879045273469378, 0.3928933922401169, 0.39617640489988304, 0.39601243775255074, 0.3870580967766157, 0.35224274125423144, 0.34199168138931496, 0.3650840379836594, 0.394613474714956, 0.40294718982071953, 0.4133887861312115, 0.4173135237136282, 0.4224599043137584, 0.42202018937517827, 0.426920981745672, 0.41645104418751094, 0.40032309006220734, 0.39254937791102307, 0.4046445696190487, 0.4394580556129195, 0.4648577352257216, 0.4669107422602785, 0.4274212295491383, 0.41862710948464843, 0.4310179408430058, 0.4539414087437103, 0.4599075260899289, 0.47316147614499526, 0.4877194201845161, 0.5160148595451859]",False,0.8000,0.1000,0.5000,0.1000,0.2000,0.0100,2.0000
33,go,Hit,1,0.5500,"[0.0, 0.017803403588552577, 0.00835013963992913, 0.04036273649743044, 0.04917131766070676, 0.05777015424617379, 0.02402536504360641, 0.054861380522517225, 0.07968031959806823, 0.07934316229826635, 0.08366062232601423, 0.0812609398616908, 0.1109849550145143, 0.09906515627452964, 0.14094761875571074, 0.15334404187467857, 0.12707106851879682, 0.12849974032588662, 0.1386879591066362, 0.15169177019714278, 0.1375896165422661, 0.13245497125773917, 0.1362041532747094, 0.16334674867993337, 0.18057448389778225, 0.20405155623086912, 0.2181897399317525, 0.23080390210688354, 0.2202400668764909, 0.20705207934885486, 0.20558529936755318, 0.21878559816372525, 0.21709125957091358, 0.2535264025231986, 0.27774368549002354, 0.2956683264305677, 0.3406927491983195, 0.34514410586735367, 0.3430642312082493, 0.34466023611837043, 0.3555567546097122, 0.3873819191012323, 0.39487227072413067, 0.42118114477028273, 0.4539220524272378, 0.5128169300313313]",False,0.8000,0.1000,0.5000,0.1000,0.2000,0.0100,2.0000
34,nogo,Correct Rejection,0,2.0000,"[0.0, -0.009214815805980476, 0.013108603841855996, -0.004372304312126965, 0.03395910113754286, 0.038859720677590394, 0.012499418417509636, 0.014363068458978528, -0.002869641645815515, 0.011527896591006588, 0.053501521926697555, 0.04315758478338744, 0.005197558841120137, -0.01117217497200753, -0.01961886512668285, -0.045279452147834215, -0.045091068985432796, -0.03534924294369867, -0.03658133826621301, -0.038374649435814825, 0.0029823733724392565, -0.024370639591110854, -0.04577674546102213, -0.0352462072649721, -0.04340655330689136, -0.03945649448767241, -0.0157990411265986, 0.008565856586549132, 0.0179561139701011, -0.004893075280785666, -0.0006856336260169958, 0.02008145352531519, 0.004004830705902015, -0.01341911073762999, -0.029047563408845272, -0.03393647812882065, -0.02610098037749455, -0.029442289189370637, -0.022657130904391302, -0.02852405573487057, -0.014935474075532255, -0.040016653133935556, -0.06896778706981756, -0.088948501540503, -0.0782695288565096, -0.09397698321703642, -0.04874395118166856, -0.06806088612457552, -0.07361718005663184, -0.051574498868831344, -0.03332385021743067, 0.035079576867497436, 0.058630206591668454, 0.10235780635488309, 0.10292193369228263, 0.09412893994589619, 0.09156703096726587, 0.049402435568215594, 0.06860492325210607, 0.08704733350573264, 0.085438704453781, 0.10347086201414137, 0.10991631251593957, 0.05056613552148671, 0.03977564067257246, 0.06597033222071513, 0.03138107973007496, 0.031077552881612562, 0.016453078677062284, 0.022474193150627972, 0.04406814384641122, 0.04200640157038503, 0.07394137104132975, 0.06588845787816223, 0.03528951075345907, 0.04172626866659748, 0.005171139342722834, 0.010893203524609115, -0.003941434009131266, -0.0030715276025196627, 0.004476345633246919, 0.036256215647513274, 0.02152470478500352, 0.022090161815051544, 0.06220831231396258, 0.02075686059272057, 0.009988575026357902, 0.011553883415476297, 0.032196009828590624, 0.03285928089711585, 0.0006100269164344349, 0.016871608989778783, 0.03271969252556513, 0.04932585832869099, 0.08929662685122804, 0.12762853425493664, 0.12477122780939974, 0.1127445006889805, 0.10831019306160065, 0.10944539308372182, 0.12476698003016787, 0.1329757948508891, 0.15216395472989075, 0.16818349378380212, 0.1372592354977833, 0.13022838178541063, 0.17959476366728833, 0.20302913250045557, 0.1952141433158641, 0.181120205722726, 0.17158415569371596, 0.15017097398755574, 0.12072013869307573, 0.10747179289779851, 0.08384180565316768, 0.07011485014008915, 0.08268070885767789, 0.061214016968633586, 0.04938053657990924, 0.047304942593504255, 0.08421911271651045, 0.06633487430818825, 0.08488105951470658, 0.11230969855736103, 0.09632508053794353, 0.11399793239180381, 0.11294053926211399, 0.13785076011748532, 0.12854203133796407, 0.1242823671770552, 0.16219862536903717, 0.19273405729405646, 0.16055887282375716, 0.1663859282408362, 0.16837748722377513, 0.1569575409124811, 0.1477011939675806, 0.11842256741898259, 0.1091944839736557, 0.07904334530639519, 0.0787680511548388, 0.09845216183535116, 0.09519051451590463, 0.09958574897904451, 0.09241834941043181, 0.08534237732675616, 0.12421730896076288, 0.12960190503305793, 0.12435089268855753, 0.1658900323249068, 0.18266018070304613, 0.21764889422613026, 0.20634982089553863, 0.1804745144115454, 0.21627189698293947, 0.2179255716503296, 0.22999258243203283, 0.240180374699915, 0.23795801763671975, 0.26929328879733777, 0.2851567915707296, 0.2730118275437238, 0.263350933005582, 0.24819765772799027, 0.22364448557430733, 0.23037494018459548, 0.20594087471063527, 0.1800243800075988, 0.19200736309667663, 0.1978140658521783, 0.2011088120976505, 0.1820307696378614, 0.16512440285711616, 0.16775149511944606, 0.1638054412448708, 0.170106808209315, 0.18531921128545115, 0.16692573164739036, 0.19377928614503767, 0.1803768731639094, 0.19072012096016425, 0.1669045695653753, 0.140385913520721, 0.14399324593707974, 0.14642726920023538, 0.12904762607411505, 0.11571949462764115, 0.09802936896077952, 0.08031734259009007, 0.102715647311175, 0.11330782952736385]",True,0.8000,0.1000,0.5000,0.1000,0.2000,0.0100,2.0000
35,go,Hit,1,0.7100,"[0.0, 0.02086502168237863, 0.028660360321788432, 0.03849469485956788, 0.062085680668372764, 0.09672353541199123, 0.09751250073919297, 0.11927740162107398, 0.16522322524081734, 0.20910393279516462, 0.18185783428256896, 0.16189764350893338, 0.14476511771739142, 0.17474050244487904, 0.19392442662245923, 0.20285006300446215, 0.22035366116155297, 0.2527737507231459, 0.2641468045127737, 0.2821515653581638, 0.32451384942386385, 0.3427396748184654, 0.3464629075368496, 0.3375438717944304, 0.37062622444726334, 0.33699988633339323, 0.3415957000267928, 0.35492835750783147, 0.347819226319871, 0.3537680942191233, 0.373580594525334, 0.3734558461566967, 0.40023703937363814, 0.40298651013361053, 0.40152998800918915, 0.3687109097254279, 0.3645630554877862, 0.38292864039268826, 0.39435246260496165, 0.4106246052295594, 0.4180221268601267, 0.4266367525009359, 0.44777141270457976, 0.42463022061971567, 0.46939228686454515, 0.48112097343236243, 0.44362058862118975, 0.45100544266832654, 0.4529472573992366, 0.43704748844348634, 0.44724217663926236, 0.44200218691752957, 0.45823373094648084, 0.4607466218069618, 0.4777338288374801, 0.45586856371095763, 0.43424608537563364, 0.4541474746696142, 0.47532710535745776, 0.4754503199283356, 0.49045511623003785, 0.5215243409658697]",False,0.8000,0.1000,0.5000,0.1000,0.2000,0.0100,2.0000
36,go,Hit,1,0.6300,"[0.0, 0.03446795153606142, 0.03893540834647353, 0.03236009968005274, 0.06379337607588215, 0.10067220879179464, 0.06447793544527441, 0.1249498819717583, 0.1375449628897945, 0.14680106335081486, 0.15878678095659152, 0.15622302080579065, 0.15408160858877884, 0.17257148172641995, 0.16784513384476835, 0.20004049578286495, 0.18552812847165404, 0.1866587676964077, 0.20047358342397212, 0.20979663598024811, 0.22462689663653088, 0.2385720901304148, 0.2340607804726563, 0.2408172552855581, 0.2749350917040447, 0.2831549178329349, 0.28609724811682247, 0.29711571759875854, 0.31514475590223845, 0.3351090421142285, 0.3512757283161659, 0.3976533596908674, 0.4072665734609317, 0.3807003961996456, 0.38980176475543576, 0.40480450185449973, 0.43311867096061163, 0.44768506942628983, 0.4291233922158342, 0.42667057264319386, 0.40676922651170666, 0.38105624990219567, 0.39956889321075334, 0.4154735808283943, 0.4153669556007267, 0.4155977087715794, 0.4360471474544106, 0.4443782784544562, 0.44871613534632604, 0.4639973450001276, 0.4646938185061824, 0.46900991835815015, 0.4833137377252351, 0.5436700847722383]",False,0.8000,0.1000,0.5000,0.1000,0.2000,0.0100,2.0000
37,nogo,Correct Rejection,0,2.0000,"[0.0, -0.006067760931322002, 0.009455722865572554, -0.006781667169507771, 0.00726515622810431, 0.018385952016333224, 0.02540399411112859, 0.05021888458607603, 0.04735027630494982, 0.01303436396089637, -0.02942346368464057, -0.06343624942662326, -0.08687029815469502, -0.09026323197784542, -0.04298509261567811, -0.02611433777577242, -0.008898175614873518, -0.03797213233391798, -0.016192025201227422, -0.0031237538906511136, -0.016328761337330994, -0.03447420101963754, 0.008434891684034378, 0.024792755425323814, 0.011682455693154903, -0.002913245945359815, -0.01340711632727272, -0.004790267194826144, -0.021210940791393525, -0.02986471744843148, -0.024182362615504535, -0.01120665527943724, -0.03683865811100031, -0.015292924495657376, -0.03887546891074768, -0.04905936010062793, -0.04012959657864147, -0.015405324574973178, 0.012661003491361594, 0.006050401091244394, 0.0196633785667259, 0.009501851407373538, 0.01052617397691077, 0.03791242975542305, 0.04296257826292235, 0.07779272457577018, 0.05345382767412925, 0.03725106433883939, 0.08944580391935492, 0.06014590774280835, 0.06219995799621739, 0.050689751315805304, 0.02439879999275074, -0.0007128995445608681, -0.024769155894934374, -0.0010596733894513814, 0.013020263140566942, -0.003850041269429857, 0.010862228493227415, -0.04992236352598427, -0.02897786134528615, -0.0016014680852092823, 0.04254487082695166, 0.042669429185805074, 0.04176053858037902, 0.08816669343087435, 0.08575431285361962, 0.09326222138301468, 0.11870258673062345, 0.09880100862880879, 0.07689683993842655, 0.09250705846995463, 0.08275227198641388, 0.10602788481226755, 0.10637980387199546, 0.08326367189496085, 0.07253799923961993, 0.08577558116780834, 0.0919973582456487, 0.10012285371711425, 0.0933013876467479, 0.06996493231571486, 0.042840505575810664, 0.035440972258962346, 0.017187047889661643, 0.008068246602997674, -0.029998227245414323, -0.048910605496448996, -0.06323681841409183, -0.07971870897759349, -0.06244335673522858, -0.08230499145310255, -0.0735089208197791, -0.07395994618137769, -0.08034241380075059, -0.1029428423265072, -0.09680807565829495, -0.12793914333916784, -0.14970023177859754, -0.13373963925922977, -0.16735769723179908, -0.20509272760208844, -0.1817122618195359, -0.20566249196719355, -0.2193506012490297, -0.19978122972145199, -0.19052805455492436, -0.18720416878453364, -0.163983427445335, -0.16139667943665034, -0.14550436086666887, -0.13619493281586545, -0.11926974571537498, -0.13863299044323815, -0.11437957011238753, -0.11279462761090288, -0.08568932156130202, -0.08173944939581927, -0.08096706233736943, -0.07391789261529898, -0.08500135744804498, -0.07525380566898444, -0.09027606069749243, -0.11013940090376553, -0.10730091826966662, -0.13760445438375588, -0.163566765883098, -0.15490830217947002, -0.15097617784840123, -0.14916587821716085, -0.1507523837132615, -0.20022039433567854, -0.213969903998465, -0.23585187790272766, -0.2560906063270692, -0.2709337076763518, -0.264852706736149, -0.2831159365766669, -0.3083461790488627, -0.28718288422802113, -0.29573449716145256, -0.29540402325110554, -0.30392278560789293, -0.3148356002131122, -0.3140774793467194, -0.32543354132131774, -0.28154393155096225, -0.2901254253206855, -0.2891545064297001, -0.26746564836692416, -0.2859720723203144, -0.26683946727482705, -0.251428090013617, -0.2468098570694237, -0.23290229738164545, -0.21607856008642026, -0.19462548053837544, -0.16979594382559857, -0.18090929474654333, -0.2125054039581616, -0.20430825181262227, -0.16965807312049672, -0.15838592011074876, -0.14649869422615522, -0.1507552443031658, -0.17506711308840078, -0.17313152287100506, -0.19556829024509476, -0.19990465189034418, -0.21638133073131083, -0.22886142359312478, -0.2670167462409974, -0.29935221515353105, -0.32244457064910204, -0.32540485379729606, -0.3444012944148193, -0.36251088738377957, -0.3497537808895026, -0.3789771851826, -0.40491944999300367, -0.4114233572012389, -0.39981443246689485, -0.39200807885551825, -0.3867952192153638, -0.35362531019951116, -0.3559932536185082, -0.3365226330165017, -0.33725600657422944, -0.3179291041560968, -0.32440787920410813, -0.30178948498261027]",True,0.8000,0.1000,0.5000,0.1000,0.2000,0.0100,2.0000
38,go,Hit,1,0.5700,"[0.0, 0.01442386383520243, 0.03817214594964069, 0.011251992267466211, 0.047330580735626675, 0.05950531976247657, 0.06578172990983029, 0.09120439790480464, 0.07424411238094292, 0.09881101088742246, 0.10558556104956082, 0.13263857384914388, 0.15351705524965045, 0.17421436234566176, 0.21100474894389126, 0.23068224622968392, 0.24199794031540275, 0.2732458271059929, 0.3233063666286, 0.310089454455421, 0.31488256112602814, 0.30974590561582166, 0.3358179729032421, 0.3577917550478183, 0.3771711259538298, 0.3835291199925845, 0.3807659071378877, 0.3498157446099369, 0.36201123200604896, 0.34876401509380534, 0.3913289710919748, 0.3718621237959654, 0.38105756784268935, 0.39566798496343153, 0.40455380744582514, 0.4207711310027831, 0.40527666608319163, 0.44561922770571044, 0.4330017408998714, 0.44422509034128277, 0.445435308793443, 0.47525313967750216, 0.49703341894096964, 0.4951939913831218, 0.4730033098558134, 0.4976743071233988, 0.4866212401962738, 0.5260634293364748]",False,0.8000,0.1000,0.5000,0.1000,0.2000,0.0100,2.0000
39,go,Hit,1,0.7200,"[0.0, 0.023386849046231454, 0.008331552396354646, -0.006330454581416432, -0.0037960886843889, 0.04703408326217692, 0.06450553361095483, 0.11336954243712143, 0.12226853045342834, 0.1448601186565144, 0.12065193975799537, 0.1315766351809609, 0.14858530846805262, 0.17303205976934183, 0.1476328206025595, 0.13230398878286126, 0.12657079388094897, 0.1634020070887657, 0.1790438629894742, 0.1736448427393359, 0.19052172323293834, 0.17234232467570337, 0.15365501896740907, 0.17320157620109236, 0.19540376493535008, 0.2311552628071596, 0.22380119448473146, 0.25257734492711453, 0.24554544898782835, 0.24713281118721564, 0.21765257524439258, 0.20445284872288153, 0.23875313892446273, 0.2796535074218309, 0.26481398387698696, 0.291752459658952, 0.2926443935925099, 0.29774708862835314, 0.3327168607560149, 0.3502754006673915, 0.35030934285481763, 0.3356591036900519, 0.31574110389818527, 0.36365409040510654, 0.3554023067191887, 0.3378591084431452, 0.3395565583540051, 0.303492677228609, 0.3378306970449454, 0.3188370929970206, 0.3568146967548454, 0.4040635936587524, 0.449399306958833, 0.4533768887334124, 0.43430658321306026, 0.4083244876641105, 0.4335399552171137, 0.4348136000639046, 0.45604744543300635, 0.45596792270626363, 0.46222465678461483, 0.49261910259674146, 0.5095252245089303]",False,0.8000,0.1000,0.5000,0.1000,0.2000,0.0100,2.0000
40,go,Hit,1,0.8600,"[0.0, -0.010947429125454714, 0.02632694666432429, 0.05036385703510578, 0.05244589228280939, 0.0732688991946906, 0.05102277382597427, 0.06404812969702045, 0.07478814091417998, 0.10421009134954135, 0.11758676778217142, 0.11019828821806636, 0.09769474038927417, 0.10867502966879936, 0.09540975671421595, 0.06646404905833714, 0.07576801190372774, 0.06679946582241628, 0.07695447153749851, 0.13150147047849772, 0.14619568433170171, 0.15067414250071964, 0.16687779304751338, 0.18305371236705387, 0.18059148685314605, 0.18143086926112087, 0.19792558997623713, 0.19458989779697727, 0.2343277570737014, 0.24441693537713205, 0.2797689013453314, 0.2526442126039911, 0.2723522628126407, 0.28692551966505, 0.3204131125624229, 0.3294793099270878, 0.3209695642308596, 0.2994364264206904, 0.3154619982883802, 0.32771616484518057, 0.3148965183152373, 0.3134661307183267, 0.31257782471547674, 0.3048365604430725, 0.32959113839774357, 0.3262343056206297, 0.33713060136281575, 0.32020202779908086, 0.3217002823794346, 0.33520684570647136, 0.2985201701130621, 0.2972380656439306, 0.29658361060571586, 0.2863681494239932, 0.32509820507230985, 0.3444308828743655, 0.3524641677272661, 0.34446144475255996, 0.3921886721339177, 0.42177665087922905, 0.4164539893746575, 0.402081444662424, 0.35444358039065815, 0.3840221748844472, 0.41003609889648873, 0.3942487996302858, 0.40430812440777714, 0.4115675142996033, 0.4572952937606976, 0.453566786036176, 0.4655263813955516, 0.47511986418931196, 0.48183415863853496, 0.48894528312998337, 0.48932833855791036, 0.47854036748079787, 0.5263953170135685]",False,0.8000,0.1000,0.5000,0.1000,0.2000,0.0100,2.0000
41,go,Hit,1,0.9800,"[0.0, -0.003356793562787246, -0.006494363641059549, -0.003053943622033756, -0.012491379714933233, -0.05919355499178875, -0.03099071605259989, -0.053140432515632136, -0.039073993318814976, -0.014732481825468904, -0.009565211896016095, 0.0015215553246195768, -0.012296710987360267, -0.017302509465006527, -0.006395550771474216, 0.023378579290351628, 0.013484525198941798, -0.03601562967673589, -0.0244599895173851, -0.04261910234610271, -0.0493699245531416, -0.05102604788360358, -0.03635424920379608, -0.01187913679312256, -0.013277396005593455, 0.002635489003363174, 0.041364854234753584, 0.0400702495878814, 0.04033096548829902, 0.05653432497350711, 0.048547771645248226, 0.03533262972725781, 0.07769210505360422, 0.07302789909606604, 0.12179965695216229, 0.13984064098304547, 0.1336170399738911, 0.12173475445367832, 0.1464470147192121, 0.14633585889616052, 0.1647729104603039, 0.17891374829120213, 0.1773112709766788, 0.14031331044663775, 0.13170669534785567, 0.1742183222744962, 0.20495420444107978, 0.20770718248514664, 0.17561237419588782, 0.22092547888460146, 0.19312771783958796, 0.21028048252145798, 0.2028512901752599, 0.1934401476531685, 0.19453940162492095, 0.20504312626917565, 0.19822755461073668, 0.19729632863071891, 0.18709997273667658, 0.16618548859599078, 0.1811569575988725, 0.21882229771893524, 0.22485924725236422, 0.24195634824206033, 0.27062294536864895, 0.26713332938907514, 0.289893502322631, 0.31074308360980707, 0.3568123268052966, 0.38180047585041577, 0.3929386330511464, 0.411055057321857, 0.41023643105475366, 0.4465472622458778, 0.41921140975489646, 0.40391001112809544, 0.3887333317409761, 0.41403790733072476, 0.4297499636350127, 0.4147649963054196, 0.4153228765678969, 0.42436155383771174, 0.4475247418277206, 0.445238305694296, 0.43956110712518537, 0.4470861444743073, 0.4741771866321068, 0.4848035212368091, 0.5223399822460318]",False,0.8000,0.1000,0.5000,0.1000,0.2000,0.0100,2.0000
42,nogo,Correct Rejection,0,2.0000,"[0.0, 0.003037907729934559, 0.03255346924491776, -0.003214676312827354, 0.015195692027782391, 0.0013656630435588003, -0.015855076426229672, -0.01162574118894098, -0.024296077868586168, -0.07060864304378539, -0.0531081985736787, -0.048337684840987334, -0.07098705566746905, -0.08050650134638139, -0.06256252197770587, -0.07225098576600604, -0.09402595304536651, -0.09125932001664669, -0.08113558735990886, -0.07887189969082903, -0.05427086906895574, -0.06434592691460832, -0.04514207464766991, -0.04303754267873857, -0.0768576511043714, -0.08603439906492034, -0.0943531243605114, -0.10158697810364754, -0.0920537105504414, -0.10997789598541119, -0.1100036496525539, -0.10235879818026422, -0.08976331727757916, -0.08979298891089424, -0.07689940403577784, -0.0969185669804346, -0.0772680643579092, -0.04735452967475703, -0.06287378840936994, -0.058449890741749215, -0.048924791686001626, -0.054228532453659994, -0.03088485971569637, -0.04138897851624274, -0.04260333308297344, -0.022316034207670504, -0.040638056991959874, -0.02431330592495241, -0.04426982614385283, -0.08507865638163019, -0.0870964014179702, -0.0630447955714738, -0.04989506225624956, -0.06210865230124456, -0.0651509499693671, -0.06541302306179671, -0.09860889581894365, -0.09934864743857735, -0.10472572041841134, -0.11608774653916185, -0.13978274546720051, -0.1374525140264061, -0.1301930667343222, -0.09179607958694116, -0.0873601361579444, -0.07273093721654224, -0.056726768823491425, -0.08373659696044743, -0.09458652464985245, -0.11140897840877456, -0.10585118439640323, -0.10567435340738425, -0.10148114916127886, -0.07648435355695547, -0.05612192021884497, -0.05777020727595697, -0.03528254000389365, -0.026227635265925614, -0.043117684129733755, -0.05103083164955199, -0.05445998220954673, -0.06014051739411557, -0.06428320502942815, -0.06920437758279369, -0.10395435582503842, -0.12865864895119852, -0.13010468829086505, -0.11231747571332422, -0.14087198534297957, -0.1195697207409496, -0.11968939077173135, -0.13087908410174987, -0.141440522275421, -0.15041462239770803, -0.1436584195397235, -0.09848225955263712, -0.11377974936394075, -0.09719925102533533, -0.11574426595553297, -0.10936663352842133, -0.112915155691725, -0.144154251047365, -0.1423378042215352, -0.1416376610072475, -0.14709067036718532, -0.14989029288073566, -0.13611303120213775, -0.1609419734547361, -0.13524349003453678, -0.1446559149921631, -0.13457315619573945, -0.1722634611874107, -0.1669528210542609, -0.2103519260286887, -0.24044270995066733, -0.2479172065295541, -0.2638478864572475, -0.2169957589586007, -0.2239622526208381, -0.18840905267918875, -0.20030468375651223, -0.188828472606832, -0.15984206623681085, -0.12611208759178816, -0.14718449814154724, -0.12497532759413243, -0.13398727227629198, -0.1399546032734162, -0.13591241800038392, -0.12684116185771813, -0.1363364507576437, -0.16042908750766274, -0.14608867672762849, -0.16315269065131643, -0.1395928207698345, -0.1570768743096921, -0.17712381951047385, -0.15809091868878955, -0.1507578299890955, -0.15081585704604558, -0.17742952257105196, -0.16318311163985877, -0.16006914365713376, -0.14895683968820986, -0.10829051997160052, -0.09362687676171495, -0.12657273908579586, -0.17027603639516328, -0.16172005047677937, -0.15952546534788556, -0.12566804221699393, -0.11488187839493892, -0.11218037690401894, -0.10774595990871876, -0.12816095050659615, -0.1322084350787445, -0.12054323815789493, -0.10112679657405925, -0.07963924087966658, -0.08416187863672972, -0.07294136047867009, -0.05992438012607405, -0.04983074077922725, -0.04705638066139555, -0.047462966758018324, -0.011284075525660651, -0.012152248733145335, -0.025581233098351717, -0.03886416950967853, -0.03577046287322328, -0.061135125499074794, -0.04809799159439683, -0.02611431043379635, -0.030352553704146648, -0.005149572633113841, 0.0006151070487773191, -0.015435033028107448, -0.0319020661247993, 0.004619287229265273, -0.013041205688258936, 0.01923400126680165, 0.021215494357376824, 0.016470291836457755, 0.0120542898285003, 0.01527802369521193, 0.019453869118783294, 0.04496344958127457, 0.05546210807045107, 0.0617101592407486, 0.0766464328097157, 0.057313931087754774]",True,0.8000,0.1000,0.5000,0.1000,0.2000,0.0100,2.0000
43,go,Hit,1,1.0000,"[0.0, -0.008648553975987374, 0.037311554848224196, 0.05308249203061628, 0.06564928341291831, 0.0527000974787085, 0.029444515770244685, 0.010548519976397705, 0.025057457596740884, 0.032852447643870054, 0.054917422008012515, 0.07945926423294893, 0.08525705868398498, 0.10628645977337937, 0.11411977707040816, 0.11476002195328622, 0.09136983623942618, 0.09663521508508267, 0.09401662890817818, 0.08918742409165997, 0.12203535673626986, 0.101120209396438, 0.1030406860334384, 0.09794997356988187, 0.1011282401119773, 0.11316913954721278, 0.11786852410863219, 0.09727177282132707, 0.09676764708066977, 0.08577318686322016, 0.09808513146025584, 0.0963225550440687, 0.13303651169887964, 0.1504322917569641, 0.17674065112549464, 0.16913521100651666, 0.1891994831112475, 0.23720960780016354, 0.26258683473535743, 0.2619047433174412, 0.2699278088373931, 0.2929806390801464, 0.2584814181201191, 0.2628626603999113, 0.2626804818268524, 0.2653334577320536, 0.2802768608148376, 0.29108374927878927, 0.28781809405417974, 0.3354410329550401, 0.3577466600053107, 0.35209021010758684, 0.3351673229787096, 0.3589340994815529, 0.3640948737181523, 0.3714644275904014, 0.3710493653063889, 0.34550525302323243, 0.33800753112203047, 0.33849742868356925, 0.32097541374034916, 0.3406937661472408, 0.33202831912084607, 0.3320587269310136, 0.3603350847061916, 0.37674121615121375, 0.39619301527507955, 0.41971739462203833, 0.41685430057680717, 0.41088954156770685, 0.4169799995396465, 0.4441227967399611, 0.43342267132039775, 0.41765061032932344, 0.41883901584583555, 0.44355400242834625, 0.40045030639016965, 0.36904945482072016, 0.39004033797434623, 0.4036028310789091, 0.3879087090052041, 0.39601841865364606, 0.39462913717287423, 0.39894410020212384, 0.400380884305309, 0.4307535928775414, 0.4405693587372196, 0.4432084605526908, 0.48164114789368806, 0.49799370271097776, 0.5284264235826948]",False,0.8000,0.1000,0.5000,0.1000,0.2000,0.0100,2.0000
44,go,Hit,1,1.0300,"[0.0, 0.02802715741951853, 0.01261088089349843, 0.007030617175332932, 0.010894141517052775, 0.003327542080376146, -0.05333527056238557, -0.014806484572557926, 0.005185127307233726, -0.008155608505408883, -0.02382096457880144, -0.026594405699841915, -0.0169870424434122, -0.01097611136284855, -0.03167308781371672, -0.003827267514210142, 0.004969771543070465, 0.015417873381465453, 0.0024785536993995484, 0.022082621809222623, 0.016979208434704, 0.04025981094498096, 0.04562391452787595, 0.02509533834886853, 0.02680247896055667, 0.05557292426619892, 0.06216310985595576, 0.05898046478519428, 0.054538098908285884, 0.05820132905304627, 0.05715916516535536, 0.062358125448096574, 0.020676660138694437, 0.0384927132252474, 0.02815430063489419, 0.04177942215929963, 0.0915149108375846, 0.0974092662667891, 0.10027377486257935, 0.11000561718751144, 0.14834840606653255, 0.1390970104068885, 0.14482132944133203, 0.14488460483989793, 0.16719909828660678, 0.18161229151062183, 0.15964046365925275, 0.11928030141138324, 0.12713757790069288, 0.1179393691076945, 0.13913864330170708, 0.14591580328323353, 0.14562024029621104, 0.1756139478544145, 0.1741910983438119, 0.17927025539728098, 0.20781668893849153, 0.18666040354167548, 0.17829598651321932, 0.1807569826075976, 0.1789707943036599, 0.16742811583954467, 0.13210594402014597, 0.14517244704388005, 0.1475820013551769, 0.17622280086487688, 0.1427449689695609, 0.17864773818270696, 0.1848288510225982, 0.20810983933712401, 0.23189677668826691, 0.22774362539408027, 0.21299031949648078, 0.22256957837991495, 0.247506897005803, 0.24308354742594154, 0.25729883705997153, 0.2838569246850179, 0.275243208488955, 0.29378975608349955, 0.316094374036345, 0.3239796013782586, 0.318565677045715, 0.34662279043516697, 0.331097258865401, 0.33210091501589917, 0.37649947110192195, 0.41911859536979723, 0.42442685040185396, 0.42281534838564766, 0.40868823918991015, 0.4578264509370696, 0.4675064775844781, 0.50348928392023]",False,0.8000,0.1000,0.5000,0.1000,0.2000,0.0100,2.0000
