trial,stimulus,outcome,choice,rt,trace,timeout,w_s,w_n,threshold_a,t,noise_std_dev,dt,max_time,affect_stress
0,nogo,Correct Rejection,0,2.0000,"[0.0, -0.013261679869541281, -0.026225675199947736, -0.032581357112164706, -0.0427156958336391, -0.051095569174956695, -0.035734264801727395, -0.02552351255335384, -0.05018961772918909, -0.04894871154948374, -0.05642554837737914, -0.05536749493214834, -0.03649871319917056, -0.029203200389781626, -0.014274261460335287, -0.0609510271757722, -0.06080779167505852, -0.09392960372521558, -0.09236133653194327, -0.10790804001194626, -0.10825267935859101, -0.14378919078465635, -0.14585933906342113, -0.12924415410464757, -0.12954252486315807, -0.13345173102368474, -0.11261035673213737, -0.1064248587549569, -0.07646593008040674, -0.07334749327575048, -0.08413204825485654, -0.08876869197385491, -0.0962809608483945, -0.10984007610478996, -0.10899736930604241, -0.11734077479072481, -0.14590213133029423, -0.18382362539657743, -0.17613075415545426, -0.18682742174678946, -0.17988744043059074, -0.15762405554393993, -0.13485021412174797, -0.1837198754753549, -0.20595688325473369, -0.2084768514106426, -0.18349106934028603, -0.21757504132253871, -0.21504812209546578, -0.20777024852831558, -0.1698534816413111, -0.17112269987225168, -0.16255736185105743, -0.1979536826267953, -0.13926516590640858, -0.15882771368960322, -0.14888124303470465, -0.15013459353150302, -0.1958637876237328, -0.19008284455942412, -0.2015947953614057, -0.1813109111628819, -0.18310607765880466, -0.1647456725435977, -0.14829344572767314, -0.14578319410361942, -0.15367871435458494, -0.13861691734018164, -0.13979957571363447, -0.14209771072221186, -0.16337327762557524, -0.15029423758915664, -0.18142192041556104, -0.1721122071432391, -0.17603514881364024, -0.18085405524075396, -0.1666035844102391, -0.18116214919286422, -0.19921768450706426, -0.24431949971907624, -0.2437313654198997, -0.24436675812482045, -0.23960280753831642, -0.23693393457657574, -0.21799316601550503, -0.25518560439978016, -0.23316942001188457, -0.23678153696212914, -0.23447197904739245, -0.24391489018348542, -0.18138580071323507, -0.19476086583215202, -0.2230740689971892, -0.252858507758468, -0.24451590442795143, -0.22607980286804347, -0.2616401237614354, -0.2622088841945143, -0.2590984738309485, -0.270528285653499, -0.2773087018565629, -0.30859783543384545, -0.29802860582789636, -0.32249796981462814, -0.3122634085184675, -0.28690528188368775, -0.29764643427889925, -0.3321077436916865, -0.33839183665379674, -0.30300386153274017, -0.29554875635862765, -0.2944601613211343, -0.2720214592289883, -0.30149627750035746, -0.32315281310597643, -0.33118921876228635, -0.31860802040413416, -0.2787989529663147, -0.3025073724207789, -0.27643685852716526, -0.2442544059050445, -0.2377953628317822, -0.25943967076285257, -0.2559899528150069, -0.2668259721026906, -0.2818450783077057, -0.2656892925835206, -0.25831101949987356, -0.23779954355025817, -0.28069083641704, -0.30484274423304925, -0.28944669680308815, -0.304851838590757, -0.3146856610845366, -0.35371739682319553, -0.36650687341414706, -0.37999969076159146, -0.37186543394622285, -0.4028243517085741, -0.4126235572440965, -0.38349039646477195, -0.40906698848658685, -0.41051100650038835, -0.38282000465471805, -0.38628947720900036, -0.39091166570002955, -0.4119628573246491, -0.419337194802936, -0.4272123341239978, -0.42181817562582324, -0.4315401354882266, -0.4366986388000998, -0.4564489710947638, -0.45256928617556536, -0.45362091287873413, -0.4773430387699783, -0.48082156056485803, -0.4801615199874262, -0.49356255764268053, -0.5209624227131692, -0.5322699340315753, -0.533595846568567, -0.5781990452928627, -0.5820491827066061, -0.571092939980072, -0.5719046465727274, -0.5807420666251464, -0.5593549832564287, -0.5452251933070064, -0.5509408777890543, -0.5720246424784535, -0.5773832367913149, -0.566936436032398, -0.5877163679233769, -0.566139288726837, -0.5746244234058832, -0.5959543701793674, -0.5907437841691059, -0.6078472862637112, -0.6014302332444135, -0.6327213122265659, -0.6555661299351656, -0.6611122548812784, -0.6929584984401874, -0.6601566096365272, -0.6882154774292033, -0.6825194005809324, -0.670391990689262, -0.7212250482790411, -0.7319493405807572, -0.7666122627187627]",True,0.8000,0.2000,0.4000,0.1000,0.2000,0.0100,2.0000,True
1,go,Hit,1,0.3200,"[0.0, 0.024483143632635353, 0.02840259663131651, 0.019080214246823813, 0.03608290079435928, 0.04094848168161568, 0.055139050032778886, 0.0588056036494201, 0.08030536663799827, 0.061202902493352376, 0.053336827447477156, 0.037161568971633266, 0.06389704711555841, 0.02550656010083241, 0.012801063840066785, 0.00988992025522218, 0.01712020275646755, 0.0470753474971722, 0.0715724160503241, 0.09071856625614895, 0.08342624930140173, 0.07594405536551017, 0.11849226726161619]",False,0.8000,0.2000,0.4000,0.1000,0.2000,0.0100,2.0000,True
2,go,Hit,1,0.1600,"[0.0, -0.005352226949783998, 0.017800329761996567, 0.0006012356121201622, 0.03301320084192273, 0.08403424539738771, 0.10282349470723254]",False,0.8000,0.2000,0.4000,0.1000,0.2000,0.0100,2.0000,True
3,go,Hit,1,0.2900,"[0.0, 0.005083752672692184, -0.01215013636509886, -0.020851167413626297, -0.011806120280314214, -0.006768954967330762, -0.02202044245705328, -0.020407399833507315, 0.002734914190575446, -0.01880925502293155, -0.026006859045808427, -0.021438446763066183, -0.022356785883708593, 0.03128263645095698, 0.04595458785188654, 0.0316491664563061, 0.044161322249819154, 0.06281157934732542, 0.09516127723885859, 0.10731945553357562]",False,0.8000,0.2000,0.4000,0.1000,0.2000,0.0100,2.0000,True
4,go,Hit,1,0.2200,"[0.0, 0.008261661118153397, 0.006003050083054679, 0.03643575431546863, 0.04703159382720077, 0.057416110960193015, 0.031671297834198045, 0.043425113973929494, 0.0427673323759359, 0.03740167123638688, 0.04344872258374507, 0.08524787851429116, 0.11154991503934178]",False,0.8000,0.2000,0.4000,0.1000,0.2000,0.0100,2.0000,True
5,go,Hit,1,0.1900,"[0.0, 0.01024264486705509, 0.02939334002627891, 0.005379286851909717, 0.02697814923406098, 0.04711579130834211, 0.06831696243272461, 0.09107806156385304, 0.09545189508801902, 0.12240239886485765]",False,0.8000,0.2000,0.4000,0.1000,0.2000,0.0100,2.0000,True
6,go,Hit,1,0.6600,"[0.0, 0.02422786993594475, 0.04418510193134533, 0.0007142547817600292, 0.0011859929605013237, -0.023284727481120062, -0.03779827706236191, -0.02889680644461258, -0.03205697701280531, -0.027837250082956278, -0.04223550182257968, -0.06306035563546836, -0.042811200464106726, -0.03553219613379165, -0.04700058266887943, -0.06856088871866436, -0.08706643772150721, -0.09758932835796491, -0.1126605978899961, -0.13736951823761967, -0.1011205087663522, -0.11029278154595738, -0.14318130364810694, -0.16989366156767538, -0.20501032789229584, -0.20395343268173005, -0.1861910699954008, -0.19160140756063615, -0.22878670158860281, -0.23207925914665922, -0.18225080742284122, -0.17673311497084565, -0.1747950440720446, -0.1564198550935925, -0.14879171613305228, -0.14652197468837422, -0.1434003134513129, -0.11326312865562614, -0.0952442257456874, -0.09204561068439168, -0.11149702509624783, -0.12519898808064184, -0.08852284134139336, -0.05921302083295982, -0.0471851892801694, -0.04836710461013199, -0.024270034556872964, -0.01380319994031459, 0.0086855956726402, 0.014592108204005014, 0.004738095513612591, 0.02552720738503689, 0.012737430293539541, 0.021471781503156165, 0.05302237930670388, 0.053821358883293195, 0.1086437809706993]",False,0.8000,0.2000,0.4000,0.1000,0.2000,0.0100,2.0000,True
7,nogo,Correct Rejection,0,2.0000,"[0.0, 0.002188659039299613, 0.04708159316210303, 0.042164381140406, 0.05960903191110048, 0.03335840041960558, 0.06143679309898105, 0.06960082032101145, 0.07640712006537201, 0.08529402580003148, 0.07372684192368448, 0.06084342232419908, 0.06060419435919181, 0.07043503603321716, 0.05939653008202762, 0.005152006293578308, 0.005499449210454196, 0.00403746044223817, -0.0047865989276519244, -0.03781069402325734, -0.05559817289056118, -0.10575691214233002, -0.11165669413171327, -0.11094758611871443, -0.11699290088799702, -0.0923725063372298, -0.12121274870960771, -0.11231164481011184, -0.13589516059233264, -0.12412842668465078, -0.12216237215670951, -0.12053018359420478, -0.1396494110259945, -0.13182297430378315, -0.14368175060582097, -0.13694211444579182, -0.1394628734837825, -0.11540055684903996, -0.12196053449389309, -0.09335295940707815, -0.09205051495641105, -0.08150830327963375, -0.09757581913392621, -0.1246960189592394, -0.11728210901985146, -0.14210059941572978, -0.14761600910793185, -0.15626494479987385, -0.13296621518726615, -0.1434137071896578, -0.16343556737856876, -0.17773895947160245, -0.12798183290484538, -0.12862401763363637, -0.1285799302372597, -0.16189192440514327, -0.15989293989070538, -0.1817985213315665, -0.22517248427162642, -0.20680586631818393, -0.2414201258762839, -0.23225071072011108, -0.23409390254874102, -0.24119976380391978, -0.24290431345943905, -0.24350148927574577, -0.20056622714659852, -0.1943026026508217, -0.21558720638325585, -0.2028886437249868, -0.19237068000059915, -0.19941690139898224, -0.19402135237853355, -0.21310744875657844, -0.23860778247316086, -0.2494655485498618, -0.24840815910897043, -0.26803354181456207, -0.28045632201647874, -0.28232202637854487, -0.26967375727621457, -0.2564573974827081, -0.23549618142764586, -0.2498862110848791, -0.26034666483099217, -0.2578067626940384, -0.2397258243970145, -0.2700450002760037, -0.2882243535116275, -0.3006574171442743, -0.2861038219963928, -0.2705683567142779, -0.27396526467328336, -0.2820500906008324, -0.30497139201084356, -0.29945519240505686, -0.29061242152511435, -0.3042865254385183, -0.30720426827242614, -0.29845985175657747, -0.27813434243499086, -0.2614969857451689, -0.24522761891763967, -0.25492090407240353, -0.2314106417238203, -0.2592198007598522, -0.2710502446811488, -0.2501337707662438, -0.2608209383456086, -0.26757575706641723, -0.24895525121225393, -0.25657839058697757, -0.23404748034499237, -0.23634853557892607, -0.22556480874901746, -0.24772428314646272, -0.21349169473657054, -0.22006332382726793, -0.23371202614782935, -0.23384294073452092, -0.20534492176602023, -0.20311228346958335, -0.20666071607855194, -0.20535859218923666, -0.22590163586881595, -0.1974526431771711, -0.20453900590618632, -0.19422008440269076, -0.19462224148729873, -0.2056728204798981, -0.19615102123488135, -0.1977672074489645, -0.20397145685291515, -0.20283370564641434, -0.18972096836314337, -0.17949772588135127, -0.1898094811724885, -0.2008631237863219, -0.20255253949259766, -0.19224949369971292, -0.17531713611233046, -0.2067894268530006, -0.20993766576124326, -0.24133832466356314, -0.25653409939098837, -0.2489633018040711, -0.26427054796338934, -0.24094879210798187, -0.23571496696289956, -0.23427957667824764, -0.2372980336368166, -0.2531610845530005, -0.27461048359103696, -0.2757695149126466, -0.2530409211751201, -0.25986763644766303, -0.2829068205479784, -0.2851509718199308, -0.2980249602432407, -0.3527348475405771, -0.36407098571632646, -0.35287513905891116, -0.29700935456197586, -0.2819409625032516, -0.2943599533338162, -0.30929063741254487, -0.34009547429722, -0.3472666946670857, -0.34539162781566357, -0.35997741393783006, -0.3804614794660243, -0.38669350444399275, -0.39369022832078826, -0.42286717590833584, -0.4104607909652653, -0.40772281333449417, -0.4150272442464546, -0.4060273332114113, -0.41685340832863566, -0.45558923712011656, -0.47961212406685, -0.4778793597940357, -0.5195871776171135, -0.5156745942695876, -0.5135910440375745, -0.5101342468169209, -0.49282677566627314, -0.483648312224167, -0.5005483627645594, -0.4963643146474058, -0.5168289145387532]",True,0.8000,0.2000,0.4000,0.1000,0.2000,0.0100,2.0000,True
8,go,Hit,1,0.2400,"[0.0, -0.00861463097545125, -0.013888871743665685, -0.013010278468417548, -0.02590595705694575, -0.016637308907346302, -0.008546965785089674, 0.018976360560663597, 0.04103616815015536, 0.04348299535188137, 0.05912608108314921, 0.0667763619256047, 0.06147349035408894, 0.09696274642422029, 0.10367005900631525]",False,0.8000,0.2000,0.4000,0.1000,0.2000,0.0100,2.0000,True
9,go,Hit,1,0.3100,"[0.0, 0.007384245316507103, -0.0037470434248660506, -0.009135292905844588, -0.056997917995307415, -0.04454418672004743, 0.0038332611384589224, 0.044581316471805146, 0.031462193107820766, 0.057436400009909766, 0.045571202758262985, 0.05510291375574033, 0.04650207304552194, 0.050096374010884764, 0.05858153473347317, 0.07908199460451253, 0.08238759898236682, 0.09374243605786874, 0.09203654933844506, 0.08130466579258797, 0.0885592249963105, 0.1019635572484109]",False,0.8000,0.2000,0.4000,0.1000,0.2000,0.0100,2.0000,True
10,go,Hit,1,0.1700,"[0.0, 0.01678711419589496, 0.04690851974805842, 0.04246267294688247, 0.06087613908784928, 0.07105600231588415, 0.07966017049078944, 0.10613334987325926]",False,0.8000,0.2000,0.4000,0.1000,0.2000,0.0100,2.0000,True
11,go,Hit,1,0.1600,"[0.0, 0.0033381228211078074, 0.04097171879592444, 0.06567424729697703, 0.05372279096301942, 0.07098952788565586, 0.10055900935089708]",False,0.8000,0.2000,0.4000,0.1000,0.2000,0.0100,2.0000,True
12,nogo,False Alarm,1,0.2400,"[0.0, -0.01879599070697033, -0.027026406855703178, -0.029175082694829275, -0.00686444802878634, 0.00701083625574629, 0.03167582496229903, 0.04251191723600693, 0.0460567273036374, 0.05757490941909989, 0.047031714323562554, 0.021301747778232596, 0.048815012015359316, 0.09312439038379347, 0.11670784422293254]",False,0.8000,0.2000,0.4000,0.1000,0.2000,0.0100,2.0000,True
13,nogo,Correct Rejection,0,2.0000,"[0.0, -0.003149820173598188, 0.004500019471158864, -0.009563534886557114, -0.029269940816354364, -0.022485844803558627, -0.047108045582782594, -0.06193678949684068, -0.0548047601267051, -0.04749548778112159, -0.04205196930690693, -0.06937860302459939, -0.07646371943926086, -0.05916527889556891, -0.023434567380257336, -0.02470176608037738, -0.017261719391175517, -0.04279971488185755, -0.049607336585977074, -0.004715485720376729, 0.0019596537434321323, 0.023154953601393448, -0.006244607115396775, 0.015176612125498923, -0.006869961810804955, -0.017083620574160376, -0.002476809638776837, -0.01791756480164377, -0.02062127693018712, 0.0034061085007981544, -0.04164309225708214, -0.03935511853174275, -0.08445317143584162, -0.10564848984329606, -0.1318111994507525, -0.1341616489756703, -0.10160538109703726, -0.08807582346218618, -0.054197825286298656, -0.1054804669478128, -0.11728645253289986, -0.12229779369583217, -0.15286658600646208, -0.1391493249389695, -0.13411985363988285, -0.147130765065581, -0.11650805424197647, -0.10924558584580846, -0.09496079637157716, -0.13065308789713925, -0.16083436676737234, -0.13202116347255446, -0.14353256262303743, -0.14932569064959203, -0.15961665941693406, -0.1654206913337163, -0.14377716406876986, -0.15047520930193028, -0.1526827120430308, -0.1771394433867306, -0.21051757261224038, -0.21693911265749802, -0.2310501265616048, -0.2558784877036031, -0.2631599483739661, -0.3131969834501875, -0.331631145968272, -0.3446657253871297, -0.33343474430970915, -0.32027310810428294, -0.32892071087493874, -0.34046493393649274, -0.3166015833217328, -0.31825296237050066, -0.3356215188886961, -0.35360089914499937, -0.371544679455848, -0.35658389991501016, -0.36884008641137245, -0.37464626450426924, -0.3557566163646641, -0.35814467596016136, -0.3569687391478583, -0.34785770666905386, -0.34894418123207355, -0.3785258129445771, -0.42571014095669113, -0.4413766237408168, -0.38951692298709584, -0.3782065421177017, -0.34981390741815405, -0.383830096751746, -0.39624672232929964, -0.38676841932238426, -0.36571237152924047, -0.33601240938859356, -0.35929882709831523, -0.36320736610891813, -0.3738065509149818, -0.3884181638912521, -0.3925807476583439, -0.4037436317728267, -0.36826920235772104, -0.3867063360680992, -0.4067990823750165, -0.40734417107855386, -0.4081922815224335, -0.41280421104143794, -0.40820419643857647, -0.42729099950601357, -0.44388401120278326, -0.40952228794901796, -0.4066623410024781, -0.3934031878695102, -0.37525096551143916, -0.38077738173982806, -0.38453810601612415, -0.40323702891506075, -0.3895855886016544, -0.3370482756265809, -0.324202091720307, -0.3397328589785636, -0.4031991548093331, -0.4042842274985416, -0.3790231220133932, -0.3695516672075104, -0.36895858243250906, -0.3563665507648578, -0.3409989781933972, -0.2983257156181879, -0.29390744392696216, -0.2919581559571146, -0.23911584426210597, -0.2743117997782382, -0.2735365558397422, -0.3052508499678431, -0.3138286683964846, -0.3353648818274715, -0.34716753936483125, -0.35722192854030854, -0.329891745967289, -0.3205894008950524, -0.3165428478489341, -0.32104145523197536, -0.332695419195752, -0.3342241322111513, -0.34907683133853484, -0.3138949831444595, -0.3057595360503583, -0.3183481971359829, -0.3381605784929569, -0.3224991695082872, -0.3134043995920148, -0.35751831514708204, -0.36568001880858414, -0.35024962673280857, -0.35924568733449613, -0.3277245565019255, -0.32937084861902016, -0.3361267286836716, -0.32899641377838085, -0.33197857738765024, -0.3440443811014772, -0.3503735426758309, -0.35499037854603177, -0.3508512032620743, -0.33507368952037786, -0.33277201785055605, -0.3343203072583311, -0.33599436906770164, -0.3644872918365708, -0.33778931838023035, -0.31964009291086953, -0.3286759341550042, -0.34163465898944817, -0.3472490252556144, -0.38129841698599753, -0.3923203851032583, -0.3617747472607561, -0.35619514793705814, -0.32625754414043123, -0.2987220102203825, -0.3019332386511009, -0.3249616385924866, -0.3194028123509499, -0.2662874733746892, -0.3172767326797939, -0.35368968889904034, -0.3550051900797502, -0.36594954227750864, -0.40111633465241675]",True,0.8000,0.2000,0.4000,0.1000,0.2000,0.0100,2.0000,True
14,go,Hit,1,0.1700,"[0.0, -0.019671602747422166, 0.012057039590504842, 0.03093498498111132, 0.04910231492226715, 0.02492154476937665, 0.08534841287124759, 0.1120476051968821]",False,0.8000,0.2000,0.4000,0.1000,0.2000,0.0100,2.0000,True
15,go,Hit,1,0.1900,"[0.0, 0.0034241433569186476, 0.013441499035831105, 0.034689335132487745, 0.04353675847528134, 0.06202159418391983, 0.067606756105061, 0.06511002791724743, 0.08468804499494126, 0.10985112955086837]",False,0.8000,0.2000,0.4000,0.1000,0.2000,0.0100,2.0000,True
16,nogo,False Alarm,1,1.2100,"[0.0, -0.007701879209096661, 0.021165363890501714, 0.0382085645903943, 0.04647253442739514, 0.03128887321768556, 0.029962811994260298, 0.00318777203292692, 0.0374248255896394, 0.02126925991765495, 0.03466584596267985, 0.03273151355284427, 0.028320302624427494, -0.007489532725469629, -0.013945014056929057, -0.01263668452945013, -0.020645712389155944, -0.0034058102017346346, 0.004958036959221753, -0.03134431731922592, -0.06268692628204886, -0.04227681671721206, -0.02141779814748551, -0.01499401617934408, -0.01375043310354765, -0.011606270864161135, -0.014302474466939297, -0.017911642399949038, 0.006017775035385552, 0.01625481155668807, 0.008927530461926597, 0.006746169461053884, -0.013130140754702332, -0.01150875715568793, -0.0723407676558026, -0.07743908108827992, -0.04816113259502127, -0.053970083265336644, -0.06176974694178333, -0.03535427692817182, -0.03740510522729004, -0.013430811253121868, -0.039487423286255395, -0.017782340914854106, -0.07322749659727147, -0.03476185632599678, -0.0364342071596699, -0.0473856662319161, -0.04341537912015099, -0.05776409788259977, -0.10295036150628115, -0.11200424083325891, -0.09723163134049162, -0.09716451539902493, -0.13875420541575928, -0.13291951425033735, -0.12549535202195206, -0.10984224508814641, -0.111858530921939, -0.13449622292094587, -0.1454504042515323, -0.1093420544278991, -0.11731271920967083, -0.09700160006328873, -0.09737616849514528, -0.14776019344456284, -0.12127551700599716, -0.1087075341432578, -0.09686919704574203, -0.07922171516591896, -0.05817743408483689, -0.09577265749432645, -0.08849316100918858, -0.04708970642482427, -0.076263393522056, -0.07782024023223146, -0.06655120384199885, -0.027703931324428395, 0.026118126986024198, 0.05995633936499571, 0.07742717689276198, 0.08182590284886479, 0.09688346260949512, 0.08141474915707167, 0.05521755035271697, 0.06832740528257988, 0.051596540501944864, 0.029547433432583658, 0.036918578666086256, 0.05115281357648641, 0.07583629334747287, 0.0722219251749038, 0.0795208976824202, 0.037382621714293296, 0.03310364883567639, 0.03849897506696086, 0.035465890992884254, 0.03298480985188611, 0.043757806312984066, 0.044676952180904665, 0.017405467950702202, 0.027434208606953413, 0.0232351605964685, 0.05369328249363019, 0.004005228325364575, 0.0016040018966202935, 0.023330322994877792, 0.018051215385730946, 0.03902952056742768, 0.08214607435208958, 0.09747559266056421, 0.11244864008717854]",False,0.8000,0.2000,0.4000,0.1000,0.2000,0.0100,2.0000,True
17,nogo,False Alarm,1,1.2800,"[0.0, 0.03253230261678496, 0.0326036291764834, 0.06298253799934214, 0.050114817354177506, 0.06165135066613166, 0.05224443474036653, 0.0470585600141989, 0.07496457734754045, 0.0759368344349518, 0.06515824063500686, 0.05743564841685865, 0.05535433738191905, 0.09318419010381995, 0.05719891357840069, 0.033867405516724555, 0.05826589070049199, 0.07377721716642009, 0.09880986670611558, 0.0675785450733216, 0.03982494548939895, 0.01870807451824857, 0.05098613522796108, 0.018974879641395596, 0.01181968985551915, 0.005629367684194199, 0.009345462286800667, 0.03692992013846421, 0.033822141275292164, 0.001052133320062848, -0.01646399759656038, -0.0485026750136698, -0.09317566571600208, -0.09420255333880241, -0.09961114736262333, -0.08425447467805294, -0.07529377573225456, -0.05760276491570523, -0.0687147006421047, -0.025709673389491136, -0.0657175202026376, -0.05758791531713617, -0.03292534606254809, -0.048660432335865075, -0.045593607438714524, -0.023615796038009382, -0.06547593541570326, -0.07385255618004746, -0.0713067399375283, -0.07703076244546932, -0.07859846211187427, -0.05157690595027152, -0.05964694238136373, -0.09376178153036907, -0.07196416308041541, -0.06447082149679971, -0.10969913625771985, -0.11346773883848138, -0.10997799286548825, -0.11161336244352932, -0.07766154105183336, -0.07687607393070382, -0.07900308653765986, -0.09153784062758948, -0.10681975709666536, -0.10521537281078928, -0.1167485779476901, -0.1274887652127008, -0.11035181117741039, -0.11046140140346904, -0.10181019617139277, -0.11213730687045126, -0.10854444411332557, -0.105301889057984, -0.08860076425541114, -0.09248044082009027, -0.10744030762481412, -0.0870682767601957, -0.06692349272591192, -0.07484971050559253, -0.08736152635975801, -0.056132462434580026, -0.06552925231952489, -0.07152878383361634, -0.040148806196508326, -0.05325577846549615, -0.05583977494998383, -0.02697180112829957, -0.0179933434366154, -0.022694470871786186, -0.035619584005594354, -0.06626640522974239, -0.07253257997536043, -0.09544093278942706, -0.07405002435784173, -0.0723970652132845, -0.03826340559454968, -0.026634628464461498, -0.018349297498619015, -0.004872826309721759, -0.029701634237627974, 0.0065558085197189, 0.009733819658758578, 0.025945849398739652, 0.027940790592625386, 0.05346502295247022, 0.06307151693698161, 0.08190606964218797, 0.07102475941741725, 0.07243276670417888, 0.08943061446665351, 0.066240537563914, 0.06271684724088762, 0.06811257451009335, 0.088659123510579, 0.0724388908961437, 0.09011451705445116, 0.08798966135213787, 0.10938958080657021]",False,0.8000,0.2000,0.4000,0.1000,0.2000,0.0100,2.0000,True
18,go,Hit,1,0.2900,"[0.0, -0.029304024301710113, -0.021847595049865866, -0.03264877221223697, -0.08390315896929026, -0.07765438845608921, -0.04947230262007157, -0.0402487237617628, -0.04105278426826721, -0.009466952329566666, -0.008689725025480936, 0.024126935729108862, 0.045339314019376076, 0.061047877484109406, 0.0634037634844796, 0.03646064553493871, 0.04192284634976002, 0.06793972855502244, 0.08915925683025366, 0.10090144168886604]",False,0.8000,0.2000,0.4000,0.1000,0.2000,0.0100,2.0000,True
19,go,Hit,1,0.2900,"[0.0, 0.03846175504257524, 0.055719887943525066, 0.07138140181348468, 0.08931895871238896, 0.07752526323649594, 0.08287941255763352, 0.06913135803996191, 0.07548087821138762, 0.07347887209533102, 0.0740991762363826, 0.09302586914138347, 0.072061770842967, 0.07151515249617219, 0.08291712403799166, 0.06895805624047974, 0.06760560314261987, 0.06128257281629508, 0.09523613220911378, 0.1095775766966921]",False,0.8000,0.2000,0.4000,0.1000,0.2000,0.0100,2.0000,True
20,go,Hit,1,0.3200,"[0.0, -0.01258695820590643, -0.00967827749040067, -0.024739119554948962, -0.03619657379614134, -0.04182988291033739, -0.021733693160886604, -0.04683355376883688, -0.045723183093082286, -0.043735875772226554, -0.02733519972069347, -0.047017444121728404, -0.05924760384315852, -0.04476443839408412, -0.04409450289808058, -0.05641922883687545, -0.034740270827020914, -0.0028742633648194613, -0.001211440186335057, 0.018398924254558916, 0.07098662325937735, 0.09078000238603573, 0.12331847341602398]",False,0.8000,0.2000,0.4000,0.1000,0.2000,0.0100,2.0000,True
21,go,Hit,1,0.1900,"[0.0, 0.023010678604839158, 0.016642356844938082, 0.05277606341569526, 0.049371579598727594, 0.06435487848711931, 0.0856408437572864, 0.08661312436105922, 0.09412371265307384, 0.1026352828430046]",False,0.8000,0.2000,0.4000,0.1000,0.2000,0.0100,2.0000,True
22,go,Hit,1,0.1800,"[0.0, 0.025281725824069186, 0.08476477747070693, 0.052482032277886, 0.056030726624273955, 0.07925403813175269, 0.06563273066851094, 0.08948567518368086, 0.1125895174719346]",False,0.8000,0.2000,0.4000,0.1000,0.2000,0.0100,2.0000,True
23,go,Hit,1,0.4000,"[0.0, -0.024928662906245375, -0.022779988025876077, -0.040783360695265496, -0.06902324825914502, -0.0733402927828119, -0.08724049551655906, -0.08881008218733034, -0.11354384382328908, -0.10725281822370815, -0.11937324988414108, -0.09760967756461697, -0.11168461132432701, -0.09444190008421216, -0.07400957327909138, -0.06875020669058723, -0.05230516995727807, -0.04289123857031172, -0.021561740057157212, -0.007366053579379472, 0.01056804791658925, 0.01941034431237572, 0.03412153829499297, 0.024859076590148656, 0.019677482767867495, 0.03584571990361628, 0.06535224790717067, 0.08611743812977121, 0.09910959363754356, 0.09098039911951593, 0.1453254195245778]",False,0.8000,0.2000,0.4000,0.1000,0.2000,0.0100,2.0000,True
24,nogo,Correct Rejection,0,2.0000,"[0.0, 0.0018068214923739289, -0.006969257434576828, 0.004791827889055417, 0.0020806572593269398, -0.013349862588795725, -0.042436226840273455, -0.032041459378696104, -0.022004846973795095, -0.01812542869489129, -0.01976559511227517, -0.011206643942419763, -0.008238137423292515, -0.03194824397611233, -0.037755267957739404, -0.038569894868186176, -0.06753954392817414, -0.07957533419518337, -0.12372943534635614, -0.15279037150665964, -0.14193299193764555, -0.09901687275428284, -0.11211278595923237, -0.12419742222446417, -0.11715971297578057, -0.14368150262024432, -0.15485988423017133, -0.13707298472127138, -0.1348577937458365, -0.1262469135940984, -0.12431823037520952, -0.14504309318000475, -0.12324333500107162, -0.08927857972811629, -0.07269335913096558, -0.09926678231934576, -0.11037447160130953, -0.12564690817356225, -0.1378218061425867, -0.12554248867980966, -0.11184010099332632, -0.10141761853600376, -0.1315646673882524, -0.15231327651519766, -0.15609624005027722, -0.14136765054954092, -0.1361832678097464, -0.16789255962432958, -0.13240977232195142, -0.16768121958131438, -0.18915064219006178, -0.19598207326072475, -0.19421149916394784, -0.18672472855091615, -0.21927006289775958, -0.2303041264830572, -0.2456081795667383, -0.2434570090219727, -0.2595651716031763, -0.28712719506811507, -0.30416463508570657, -0.3044100584212398, -0.2580018373562505, -0.26322121404247045, -0.26420096160072976, -0.3039903792104427, -0.3346081561163337, -0.31282076186105523, -0.3066665372355435, -0.28796390923206167, -0.2871013513751245, -0.281935729820009, -0.2478582825086736, -0.2411645776128955, -0.24646894573680567, -0.2782309029456456, -0.2643019149985097, -0.26477159295727254, -0.2787356742216158, -0.2491149450511021, -0.270981458522646, -0.22578219818453232, -0.1930656263736766, -0.2097391529055841, -0.2299215397286175, -0.27631790204712897, -0.2857015195564396, -0.26994139023834157, -0.28232628328272275, -0.2431445262386791, -0.23388598950382317, -0.2545457490163462, -0.28048361253983284, -0.23152892929489155, -0.23078786398362522, -0.2264285050713999, -0.23184444732788434, -0.21462759597237938, -0.21914355635187055, -0.21141375276825838, -0.22488557022140546, -0.23927377188108717, -0.237439198529534, -0.21485415165741745, -0.22433850553069792, -0.20412132392458154, -0.19819473087560524, -0.19691480619132462, -0.2102256174798345, -0.18541583072175433, -0.1964702881161179, -0.1938013426866393, -0.19652247612199622, -0.19259627354046563, -0.2033866022462452, -0.21197529568023205, -0.21798177707353558, -0.16984799674243936, -0.1747360783756224, -0.17126813893624035, -0.13609850625874012, -0.14431168516210352, -0.10877058303586903, -0.0838524198456343, -0.06030168656231604, -0.0656071554212815, -0.07468364490611241, -0.12994891365563363, -0.11098980265175026, -0.12986344066599154, -0.12305974109217234, -0.13747652810779185, -0.11761653236792002, -0.13571214164450116, -0.12468621676665186, -0.12265177637803103, -0.12206820394342266, -0.13260916461319608, -0.16257896100649813, -0.18762803324311242, -0.20079324137018517, -0.21167051074107507, -0.21658632537660688, -0.22400443089741004, -0.21710693837999095, -0.2185286891806169, -0.2391234346024786, -0.2300124517131638, -0.237046785225795, -0.2605321012642978, -0.2727614362192305, -0.2494757041676577, -0.2519192696799721, -0.291617580914707, -0.26393402491894535, -0.29528786909483473, -0.326495800398254, -0.28510997314577974, -0.3384009650003924, -0.33325608382973065, -0.3205156777097771, -0.30609903019794604, -0.3282457691114393, -0.31782339201642584, -0.3069462354732738, -0.2821924175213593, -0.2931610463745143, -0.25481056871210017, -0.2583326074684304, -0.28435976767759047, -0.31121084966175927, -0.30946105259041157, -0.31305579474079, -0.299417337604309, -0.3152127312386658, -0.3338680877927547, -0.28359852254957413, -0.2805247445727296, -0.2884196662978856, -0.24652434528004563, -0.19173748358280568, -0.20899615641666092, -0.20245839426812115, -0.19942334809400689, -0.18196762221304388, -0.19206810507392968, -0.15260905014058124, -0.16562479914361558, -0.19394215185381683, -0.22310902625356188, -0.20535197913706904]",True,0.8000,0.2000,0.4000,0.1000,0.2000,0.0100,2.0000,True
25,go,Hit,1,0.1900,"[0.0, 0.010008007274164057, 0.02270112553182587, 0.04712403632788724, 0.04295547736839399, 0.05859944318047002, 0.07336823333737195, 0.09567902895765673, 0.0680436305964457, 0.10348080819449906]",False,0.8000,0.2000,0.4000,0.1000,0.2000,0.0100,2.0000,True
26,nogo,Correct Rejection,0,2.0000,"[0.0, -0.020643831259099993, -0.0224501470802003, -0.01312698101062503, -0.03245683827025881, -0.03600246878799546, -0.04893604927052662, -0.028657823397743223, -0.07277308799488161, -0.06327219577248452, -0.07326332291166143, -0.07118550125536428, -0.08980996829183119, -0.06465419926140603, -0.051617307096927606, -0.05409665622533307, -0.03484109957698066, -0.030039578318240907, -0.05318274406289637, -0.06261042641284267, -0.037292961384886955, -0.03348297228985061, -0.03185172046037064, -0.03210143415200316, -0.04710236037400284, -0.09631378040244892, -0.07212525648912654, -0.0761121102652094, -0.009108215682101642, 0.007959345805705585, -0.005804940679410129, -0.03601873767816391, -0.029174151631523097, -0.014509502231149541, -0.015863119377038767, 0.009870754268279047, 0.0005296490925195078, 0.00767333850679614, 0.013960995609963462, 0.01264487928046639, 0.04659324844508522, 0.05272124291479058, 0.01400579748388183, 0.011022726897798315, -0.012532037399679275, -0.029547577234480916, -0.05710716014661893, -0.06815805980906631, -0.07782017956543007, -0.08632681788752763, -0.10171164859557484, -0.0947861275631999, -0.10363768436583723, -0.12589412280465834, -0.15076831367735727, -0.17907017613513523, -0.1952632611201125, -0.20106436364121283, -0.18276882253126822, -0.18368697633857406, -0.1783264653296523, -0.1882561830751719, -0.19977457597758058, -0.1850744181167822, -0.20065820205701881, -0.21005057754514858, -0.24315641564997792, -0.21006298743253832, -0.22293393686453405, -0.20560484224042164, -0.21107254434023276, -0.1991283055069605, -0.22812809720968186, -0.2196594788126906, -0.22830650981616096, -0.20611775949055383, -0.19967137839613103, -0.1975845771407643, -0.21750702329361127, -0.25252552982583665, -0.21550740501291532, -0.21946806491140383, -0.2231207025413145, -0.20298037106852712, -0.21070805352446592, -0.2240193516678833, -0.20363667053948092, -0.22581497464009764, -0.2169292276721762, -0.22417187574141859, -0.19517561852252982, -0.19965424121954373, -0.25233764841189144, -0.25151725886328263, -0.23014780111798513, -0.2027571938966624, -0.19874115825372096, -0.19547696561607364, -0.20941708801458658, -0.18636191932042714, -0.20197335890432527, -0.19794805284779052, -0.18823350901768482, -0.17422003712007542, -0.21129552522114906, -0.20643161779270272, -0.21732372369909972, -0.18262480116637753, -0.18284853182838545, -0.19430189568947817, -0.20815589834994602, -0.1838070264622469, -0.14730978764365293, -0.16598479165469968, -0.16014375912286533, -0.18329220407048724, -0.1572682115626568, -0.14800715613206525, -0.1694593943342217, -0.182348287787241, -0.15944992205016273, -0.15875100623041571, -0.16821075449811085, -0.20095561590734606, -0.14128893613932964, -0.12482262831054837, -0.12008995236516638, -0.0990100809263321, -0.09560468175895873, -0.08555191896410166, -0.08575371928749982, -0.10184237002887819, -0.13933498660268898, -0.16208870711295076, -0.19108865684206064, -0.1857373404405852, -0.20851754285640045, -0.2304783741072411, -0.22664363523832512, -0.22038521639344918, -0.2235060478712718, -0.20934218472959104, -0.22114768384986017, -0.23747389849844028, -0.2412395344290453, -0.2443287668845085, -0.2658058477047522, -0.3035685826035255, -0.3349224749460773, -0.3416255902406074, -0.33975354263237517, -0.36727118339413656, -0.3952823661881323, -0.39585827555589087, -0.40420768193134976, -0.4425919800250159, -0.4142296324702261, -0.41539025593500045, -0.42996339052412735, -0.4234301038069884, -0.437675041600258, -0.4098352636751662, -0.4139153165288741, -0.42180209065268004, -0.44264632656094244, -0.4389706123993206, -0.45914295375304587, -0.45453318827192907, -0.4777587100792783, -0.4938514748051327, -0.5056614832551162, -0.5094839899835187, -0.5077968972910132, -0.5053581673503132, -0.5086963993287187, -0.5059948784782001, -0.4906671525647171, -0.4862912005461102, -0.49822711937755604, -0.4575963554746077, -0.487371587970392, -0.4755088891141714, -0.4393754537701412, -0.4296089661325652, -0.5017201252215315, -0.5184770035163668, -0.501059941755809, -0.49372403482145544, -0.5147085903355906, -0.5117065803625603, -0.507391440568789]",True,0.8000,0.2000,0.4000,0.1000,0.2000,0.0100,2.0000,True
27,go,Hit,1,0.3800,"[0.0, -0.0013399937129483803, 0.00158991159276418, 0.006578107022929853, 0.026990998827899813, 0.030578738523644663, 0.026921646336215414, 0.008225084767357189, 0.021405979953528685, 0.0391785657569749, 0.021812224834696196, -0.007140421585027031, -0.009378738854026042, 0.03775458980897811, 0.06403450032088953, 0.09448870751723716, 0.07876675344288109, 0.05496172173536358, 0.06531317874945153, 0.05857531887285965, 0.05855725480053593, 0.06892691368726786, 0.0634942054444089, 0.05772667125402969, 0.08433824484182544, 0.07176482211220989, 0.05632287831017309, 0.06118271665663122, 0.10031319828226129]",False,0.8000,0.2000,0.4000,0.1000,0.2000,0.0100,2.0000,True
28,nogo,False Alarm,1,0.4600,"[0.0, 0.007019334528289015, 0.020215730948226845, -0.007163464473647036, -0.0067425681304297165, -0.0037104921551840532, 0.01644275051385017, 0.01446799630971457, -0.02407160003226816, -0.015169580939294712, -0.017508899568413516, -0.0069562242359820035, -0.0057886727611667676, 0.04104643084888176, 0.03330271867653416, 0.041003852554601226, 0.040789430955894226, 0.024606012044248945, -0.014035907079214167, -0.04414249927767788, -0.052906704095899586, -0.03699679347663101, -0.052167876828250005, -0.0319107122922085, -0.01313262538154281, 0.007090106402307717, -0.017828512072404327, -0.04023657317902938, -0.021743912806049818, 0.005151283354723424, 0.030035551773863075, 0.02232122890059779, 0.06376399500050786, 0.06280558627937428, 0.07272312976561618, 0.08252215658236547, 0.1122728607056297]",False,0.8000,0.2000,0.4000,0.1000,0.2000,0.0100,2.0000,True
29,go,Hit,1,0.2500,"[0.0, 0.009635131024163995, 0.027542425300032224, 0.02812699482754398, 0.006430578971763249, -0.007633084957849017, -0.007239018694655455, 0.00256768038463192, -0.02382289932371766, -0.0049462176703100845, 0.020098081043536362, -0.008994599587645685, 0.04074349732301957, 0.05752133586303202, 0.08860932773321412, 0.1367348059586132]",False,0.8000,0.2000,0.4000,0.1000,0.2000,0.0100,2.0000,True
30,go,Hit,1,0.1400,"[0.0, 0.010949060617690807, 0.05570294010064801, 0.07930146556324062, 0.1168413114908749]",False,0.8000,0.2000,0.4000,0.1000,0.2000,0.0100,2.0000,True
31,go,Hit,1,0.2800,"[0.0, 0.012513355513650506, 0.010954628222296271, 0.03066339648016623, 0.027047617297477226, 0.02127197713298931, 0.03999012935780463, 0.01514422426222705, -0.001022067424937212, 0.03308150341121652, 0.01152169633664574, -0.0016037345149804809, -0.010711434769214854, 0.023149897822356724, 0.03139352054992952, 0.052843528315527286, 0.06030250148686355, 0.07793997920177766, 0.11573314492413045]",False,0.8000,0.2000,0.4000,0.1000,0.2000,0.0100,2.0000,True
32,go,Hit,1,0.2200,"[0.0, -0.018651690901177118, -0.01558831098778505, -0.014655203297634107, -0.0483863290509389, -0.03398353083928546, -0.04521596848591576, -0.01774923227213223, 0.026974050246707584, 0.056379678430395, 0.09768716122173496, 0.09706835167990485, 0.13700641941488093]",False,0.8000,0.2000,0.4000,0.1000,0.2000,0.0100,2.0000,True
33,nogo,False Alarm,1,0.1500,"[0.0, 0.010216363076995213, 0.04580393912568751, 0.06359765348047393, 0.08178499124591795, 0.10726923570444004]",False,0.8000,0.2000,0.4000,0.1000,0.2000,0.0100,2.0000,True
34,go,Hit,1,0.1600,"[0.0, 0.0192002880357508, 0.05491479723214672, 0.05206332980209476, 0.05193349625484918, 0.09694117598705074, 0.1381437865967938]",False,0.8000,0.2000,0.4000,0.1000,0.2000,0.0100,2.0000,True
35,go,Hit,1,0.1800,"[0.0, -0.0001747743296235376, 0.035339579001478064, 0.051345866009559704, 0.0385158028997145, 0.05924972997972482, 0.0645500253154421, 0.09787836146561085, 0.10633043395713979]",False,0.8000,0.2000,0.4000,0.1000,0.2000,0.0100,2.0000,True
36,go,Hit,1,0.2700,"[0.0, 0.01930867291283249, 0.03497756962943071, 0.08275479316062283, 0.08023245626080841, 0.07973932129489053, 0.0927023356574074, 0.09809235984239503, 0.07076650931719891, 0.04956812693018513, 0.04811171631699824, 0.024098109394577447, 0.04094204558505902, 0.042094415260923695, 0.05448646866496992, 0.08107356735780598, 0.09764496375116229, 0.12196416247125483]",False,0.8000,0.2000,0.4000,0.1000,0.2000,0.0100,2.0000,True
37,nogo,Correct Rejection,0,2.0000,"[0.0, -0.021653671775311613, -0.012938242191612777, 0.030537014144712084, -0.00716808242099394, -0.01161249746457661, -0.026245106507808397, -0.03361922119622469, 0.020059273595238986, 0.021795548817000167, 0.03990703777271119, 0.04853688884844346, 0.014105245303723084, 0.030143676079390985, 0.04851404638470907, 0.06539291492111098, 0.039361053298310696, 0.02204754552340049, 0.017180854283886382, -0.005450312657902037, 0.011753267542206028, 0.05939764218285369, 0.04707765083815369, 0.011911145697067999, 0.021028322666178614, 0.0009745353900399538, -0.00734920554350222, 0.03167179749343268, 0.07064932413845373, 0.06369197423605999, 0.04426852654562611, 0.02352852083785955, 0.01207381905591043, -0.053323390667315895, -0.04716144288378535, -0.02268016682101876, -0.035885896949076804, -0.05305548431919549, -0.0035705973615518527, 0.013481790152628938, -0.01840641226515006, 0.011763072947797285, 0.012362253186759757, -0.014326931273544775, -0.07186636628016121, -0.08940883067321062, -0.08025433362254493, -0.09210612753578595, -0.06934709198193248, -0.07486908988767554, -0.07393228645873375, -0.11052521438094366, -0.1103266646594334, -0.14446998345351264, -0.16101813769246873, -0.1662535750519806, -0.17715876876957157, -0.1866821664867239, -0.1521064157422155, -0.1480681287726254, -0.15093492518976967, -0.1733671246688933, -0.132937250035302, -0.147830786718379, -0.14820123940120172, -0.1476622744101918, -0.12265591246811577, -0.11006647747489612, -0.09470680471741036, -0.09091488210064465, -0.12306288105618647, -0.11252436257455216, -0.1225225132362525, -0.14506946907394597, -0.18355647231435718, -0.18928527385746569, -0.19446409220977154, -0.20671911309062746, -0.2236633761400405, -0.27492178921590815, -0.2648880508021607, -0.2505143526762002, -0.22475712350285845, -0.2317328864114664, -0.2235695807561181, -0.21352396292950981, -0.19895408473624143, -0.18896564169283978, -0.2016881085280939, -0.22021280610237012, -0.1947397711986005, -0.20179974515246984, -0.17721372781313496, -0.1725827021304575, -0.17248768435744885, -0.1795183263820404, -0.1476561316251938, -0.14720499046206137, -0.15067198688846842, -0.15193431291492354, -0.15741062065094968, -0.1581924634882296, -0.16265697928057868, -0.17075920936688135, -0.16743568046808283, -0.15865790659811035, -0.15633284392534919, -0.15961271770527077, -0.17524940139872322, -0.19275184548938262, -0.18829226370642968, -0.20600373607620096, -0.22488220336085746, -0.21514809272970387, -0.2542310744843154, -0.2621355853281562, -0.26571224083991646, -0.2590916635894121, -0.2636323455742467, -0.28767665672395104, -0.2593943051781418, -0.24465351752194991, -0.25597208935611393, -0.25548579450717673, -0.27347267580321216, -0.29331652565143584, -0.2787233242604222, -0.28006748082997324, -0.28015954629706946, -0.26965016759445554, -0.2843509506370738, -0.296100850702457, -0.3075193383499336, -0.32606773676871714, -0.3334717713426373, -0.3267677525182617, -0.32342041545389644, -0.35496024444966195, -0.33379405803960893, -0.319893415778121, -0.3415941917659609, -0.3078803136154036, -0.29719347201373536, -0.2974375232676791, -0.3286665271689362, -0.3276598288307162, -0.3339638143513036, -0.3240922239976234, -0.33488575430604456, -0.376814000461771, -0.3315508722035812, -0.365625027566181, -0.3775114767752661, -0.357392831136412, -0.3544533125402631, -0.3439975704214602, -0.3180410758364394, -0.36118016438784406, -0.38539501472521565, -0.35859289054974547, -0.3234797481661637, -0.31824620217157895, -0.3253300950598969, -0.3073012502226073, -0.3138148180436097, -0.34572017737933025, -0.3380849722729129, -0.3145317376439898, -0.3235787604819243, -0.3119198573042654, -0.27726033516388476, -0.22873641484316792, -0.2531234691699406, -0.23919614164690658, -0.23726926596314207, -0.23201595476222442, -0.21865752520563203, -0.23756474935827004, -0.18698017589497173, -0.1709856413311839, -0.1533855129885299, -0.17507369932115882, -0.12937555185650407, -0.11820473905037651, -0.13913049644655462, -0.16220749463097414, -0.1712974837643849, -0.167832834266416, -0.15079383194320226, -0.13057715381721163, -0.11394938539096758]",True,0.8000,0.2000,0.4000,0.1000,0.2000,0.0100,2.0000,True
38,go,Hit,1,0.2600,"[0.0, -0.04352429105062676, -0.002786197108010584, 0.021946749067649745, -0.009281758011457957, 0.017820765817796902, -0.0020875866092703033, 0.02575920002478043, 0.013386831868901276, 0.03458945509800798, 0.04527774192354419, 0.06758472948887516, 0.07530059267941663, 0.0794445854441839, 0.08308857370363963, 0.09034301519913485, 0.1201551338763299]",False,0.8000,0.2000,0.4000,0.1000,0.2000,0.0100,2.0000,True
39,nogo,False Alarm,1,0.3100,"[0.0, 0.003031287699502702, -0.0068864284459434185, -0.013477127558612363, -0.0223971920728486, 0.0017593478148724626, -0.006835588225006137, -0.011499142865219808, -0.025831985233044672, -0.026822761770174793, -0.03584518491660532, -0.02650634480507986, -0.016010293342171772, -0.001011707122021907, 0.009416214502116495, 0.020722610390252513, 0.04020178291513569, 0.03786379308840044, 0.06635911327002704, 0.09013934796704044, 0.08915330409384449, 0.10904222951526588]",False,0.8000,0.2000,0.4000,0.1000,0.2000,0.0100,2.0000,True
40,go,Hit,1,0.2700,"[0.0, -0.020000297489379006, 0.0017919098295720338, 0.005175776993378802, 0.024157607692203906, 0.01582897303882099, 0.052248017300008706, 0.026518671467952643, 0.028850307106025774, 0.05358625910465967, 0.04849083096690525, 0.08554909683063658, 0.08891062307658965, 0.08814261399675967, 0.08544181101096704, 0.07912492653044029, 0.09591644231099349, 0.11936092330279988]",False,0.8000,0.2000,0.4000,0.1000,0.2000,0.0100,2.0000,True
41,go,Hit,1,0.4100,"[0.0, 0.00410222781385821, -0.005156654822153873, -0.007686588969855433, -0.017175881907814997, -0.01710053549895537, -0.024331367205347253, -0.025586121621889373, -0.06476897962310052, -0.04787124657392218, -0.026841544000650322, -0.020624776796922255, -0.008743449281370377, 0.0034319762020037278, 0.00271546729295853, 0.04870184176398629, 0.04489226831195457, 0.05937516877139751, 0.06232638363173806, 0.059545744987105534, 0.056406542642166865, 0.05205719344721801, 0.07614261781930931, 0.07918790966694242, 0.09409212708836752, 0.07394227396016087, 0.08455508281617087, 0.09478922337088881, 0.07583028531801564, 0.07104947581299297, 0.07338922993461966, 0.10440744507849749]",False,0.8000,0.2000,0.4000,0.1000,0.2000,0.0100,2.0000,True
42,go,Hit,1,0.1800,"[0.0, 0.0037094502450774787, 0.022451455532080177, 0.014849790405847668, -0.00967505196115095, 0.021658594253263642, 0.05374456156856186, 0.06030369611830565, 0.10753565485726009]",False,0.8000,0.2000,0.4000,0.1000,0.2000,0.0100,2.0000,True
43,go,Hit,1,0.2400,"[0.0, -0.03996512170849858, -0.04416725712824888, -0.03309520241830328, 0.005152110182187523, 0.010522620670145281, -0.007060979498509224, 0.024975206260958838, 0.029722744269473387, 0.05805232011320699, 0.047862844299440196, 0.07048765089925701, 0.08491711075673422, 0.09557145464927441, 0.12514211299328273]",False,0.8000,0.2000,0.4000,0.1000,0.2000,0.0100,2.0000,True
44,go,Hit,1,0.1600,"[0.0, 0.012185842964533872, 0.047379055557110535, 0.07247875507456883, 0.08846559773533966, 0.08944064336910215, 0.12079406196550448]",False,0.8000,0.2000,0.4000,0.1000,0.2000,0.0100,2.0000,True
45,go,Hit,1,0.2200,"[0.0, 0.011502627123566665, -0.016381657000849578, 0.0002609885137462159, 0.006194801839903284, 0.019236605681355066, 0.04163612319113611, 0.04397008693745059, 0.07490863328762107, 0.055517691681187586, 0.0771966107729716, 0.0650895969820394, 0.11223136072520433]",False,0.8000,0.2000,0.4000,0.1000,0.2000,0.0100,2.0000,True
46,go,Hit,1,0.2100,"[0.0, -0.021310296398075322, 0.006510839101299858, 0.009626514108895198, 0.037832082196006867, 0.05648742242727672, 0.020192959870033056, 0.054711444681262114, 0.09411427591792346, 0.09585271402535457, 0.09936971059747783, 0.1304806790956289]",False,0.8000,0.2000,0.4000,0.1000,0.2000,0.0100,2.0000,True
47,nogo,False Alarm,1,0.1800,"[0.0, -0.013524304722254516, 0.0004315739653001707, -0.012314549649375141, 0.02103271006698206, 0.060392314213204484, 0.06685292359821496, 0.08073099679259782, 0.10189711936763489]",False,0.8000,0.2000,0.4000,0.1000,0.2000,0.0100,2.0000,True
48,nogo,Correct Rejection,0,2.0000,"[0.0, 0.005592247089136157, 0.018743900835338355, 0.028119197352777896, 0.03358370706307045, 0.026701365130376818, 0.03399322781917421, 0.01829256467850879, -0.007700067866679282, -0.01227623401810883, 0.0022176748066517517, -0.0002606795448667305, 0.020729096167615105, 0.03585470491334998, 0.053895207975238585, 0.06766461113198234, 0.08803079322006221, 0.033789144865127914, 0.030158892617499038, 0.04189707802210681, 0.036038093592766246, 0.0344354505119874, 0.03534213323532167, 0.06239045832903574, 0.07562246022241322, 0.07379438900658884, 0.04746833598226212, 0.037885055743494454, 0.04483817312207731, 0.015549981703138066, 0.03547312950568591, 0.029555252455788376, 0.013940940310160672, 0.009992290473844822, -0.007140845613518888, -0.0019779868987031737, -0.0008143065270785645, 0.019844849004993628, 0.012900493648427065, 0.012712070406063758, -0.018004956875540917, -0.023129736624022325, -0.03464182738286209, -0.06549950320305785, -0.044736693285720885, -0.029661092158172565, -0.02763048500284874, -0.006653674995339042, -0.019965154802635686, -0.04068643713068541, -0.05988521155939469, -0.05000334426712789, -0.04052539391104261, -0.05662540757578484, -0.06751832336496386, -0.06156641127415882, -0.08929440288216611, -0.07823831341903062, -0.08703908978584128, -0.09661862890011916, -0.05113269228420816, -0.028688851837298805, -0.05917025823082874, -0.06299695485049638, -0.054187675943578706, -0.0633668655778902, -0.0922151679447615, -0.1059720230746014, -0.13111609261872914, -0.11616413528331779, -0.07405357868169687, -0.07709630932707752, -0.05002566554466126, -0.04011599184369454, -0.052674800882093364, -0.03098086680935339, -0.04456177431658494, -0.06824967291037341, -0.08094451753046775, -0.04889792416042609, -0.0551904345480514, -0.06086399586139522, -0.0499990771676747, -0.04794134546036474, -0.027542138377934886, -0.0252259729899452, 0.010466576321807919, 0.04278426112120119, 0.02341197294976987, -0.025379716198008002, -0.019954458877484368, 0.01837446964688558, 0.02280472423475118, 0.027912860059090633, -0.01551451064311827, -0.030086486339535326, 0.008627604094100877, 0.021482864296031648, 0.016503628661588776, -0.009654583179531332, -0.011921044481933615, -0.009418258703554745, -0.03385613222186235, -0.05403221249472462, -0.030057956951745436, 0.0031900478129278376, 0.014379272057084879, -0.0072509169874543315, -0.026226213182504676, -0.026281186539171327, -0.02079014962915363, -0.024200820604604854, -0.02525850074063865, -0.04652189857619983, -0.03404737528681991, -0.009111887597303952, -0.022810256580552597, -0.01053278018920859, -0.007711234633376471, -0.02313695290496706, -0.023235509011630816, 0.004017080037237164, -0.0013874378654544044, -0.012692135240648791, -0.035488573310840606, -0.06271062739031918, -0.08954010521294342, -0.06973969442398832, -0.03468170888905425, -0.032766933720911495, -0.036427069868120145, -0.04638844202999966, -0.07823111835257461, -0.06436006520090755, -0.06367105042274097, -0.0698380894498931, -0.08228131307148354, -0.0711788601820354, -0.11995955958888108, -0.15693027320316244, -0.116712747512329, -0.08093419882768185, -0.111805082108579, -0.08993743903048157, -0.07390385472490531, -0.04568088659321994, -0.06227480630286192, -0.08281844252226814, -0.07504214557919647, -0.06840609473876004, -0.08638829853551448, -0.09867209897463794, -0.0884243568985501, -0.08442441581899988, -0.12050640869296622, -0.14131667063148415, -0.12603170981089212, -0.10071557645949422, -0.10243664653968099, -0.12876438435773765, -0.1435571044581752, -0.1458726782181379, -0.15561673795644432, -0.16180042227798075, -0.13813304029537646, -0.156295020356297, -0.1381882188076769, -0.11236513715135413, -0.054748204454095596, -0.08958424276309773, -0.05377431343448822, -0.029474103242512956, -0.036989748118030755, -0.023350789464545066, -0.06530983273528608, -0.06585235416118213, -0.0815316687872194, -0.10046863102291044, -0.0996028927991214, -0.11776001114265684, -0.11392265977649764, -0.12201820798712153, -0.08520830707429122, -0.09294985500350932, -0.11773834195613841, -0.09266983857945751, -0.10643356739841635, -0.09420463314416894, -0.09139932976029333, -0.12585702848696892, -0.11477450605580032]",True,0.8000,0.2000,0.4000,0.1000,0.2000,0.0100,2.0000,True
49,nogo,False Alarm,1,0.4400,"[0.0, -0.018564938754292576, -0.000605680490179953, -0.03469797497589079, -0.014866970239948301, 0.013047373938434068, 0.0060509401204445895, -0.021041944992383894, -0.03609300006003651, -0.04406911365993168, -0.08866985584504725, -0.11672478879257012, -0.09499208882205779, -0.1092866252455654, -0.09101994695664868, -0.09213535248208209, -0.08882148337202743, -0.06523002262636184, -0.08938526592226212, -0.07986496999287113, -0.09215962296271801, -0.036390248597610045, -0.00590592866577952, 0.01361092138688405, -0.0005569735421495896, 0.02347268664118387, 0.030774604820003514, 0.02709464975952962, 0.05168118031042089, 0.07181156846603862, 0.09806379083234477, 0.09386183049324175, 0.09350062333341098, 0.09380058535082025, 0.10382893242867494]",False,0.8000,0.2000,0.4000,0.1000,0.2000,0.0100,2.0000,True
50,nogo,Correct Rejection,0,2.0000,"[0.0, 0.013982983845170407, -0.017676826460765464, -0.02702624736406877, -0.05668481763684401, -0.06556624860090332, -0.057876476831554016, -0.060047358406416854, -0.08178332168037283, -0.10795139882674523, -0.11313625082000583, -0.10906102718164684, -0.13135033351042574, -0.1141238438397022, -0.11441542397958349, -0.10333991666519533, -0.08695465224207702, -0.09871537298369992, -0.08956800777022991, -0.09216249918440289, -0.08612394113335856, -0.09187665078498922, -0.10982557888634786, -0.09378486623711407, -0.1130422699427977, -0.08396401152969887, -0.1262695052333856, -0.1480514520223201, -0.1672501295886888, -0.17253574371860705, -0.1545267936934225, -0.1385865429224232, -0.1233958238359805, -0.09963851324243687, -0.10354877850108492, -0.06929066912873008, -0.060238265500447086, -0.07463868916325632, -0.08519699495242175, -0.07740338848326865, -0.09200029180227803, -0.14059525596668485, -0.14302340091595944, -0.11972002224161082, -0.11507918205555089, -0.12440263030036519, -0.13005092662280662, -0.10687942008904486, -0.13573139444380725, -0.17226540346153446, -0.17182216634323164, -0.17065285075290507, -0.21893656773925507, -0.21786003838727946, -0.1952784088101151, -0.22074065704518278, -0.1732840075109596, -0.16367627705674995, -0.13100318687416443, -0.13347797377559006, -0.1269493778219706, -0.13201877764546105, -0.11188238861328845, -0.11924488812807855, -0.142933327240224, -0.13339695488397754, -0.14220809608770765, -0.14355854057300074, -0.1435123312061367, -0.16023136006396313, -0.1562896696423224, -0.1754333502878487, -0.16889696228034706, -0.20520098029986567, -0.19095956368157638, -0.21890480098537746, -0.19892370139857252, -0.1832605275745271, -0.13393125157444716, -0.14093797788103526, -0.11403199734192859, -0.0923982620597465, -0.08931745367376007, -0.07852670490453137, -0.10487027999124872, -0.11896095069346307, -0.10621703709243743, -0.08629883554717543, -0.12419716219055556, -0.14066865007294052, -0.15428189143674775, -0.1452442593238957, -0.11807587840762493, -0.12822501020068927, -0.12205417570808721, -0.12834648818846764, -0.11694331898485484, -0.0787684770937884, -0.05949559170668657, -0.06787325588509212, -0.07715789232787758, -0.061603541550157195, -0.04398357061920068, -0.05159384846686148, -0.04275398921993007, -0.028079647891718088, -0.023585833346218818, -0.05310497430018533, -0.05484555004577066, -0.011351471719590757, -0.028863938306215045, -0.04416629108452771, -0.05764721961006337, -0.07695137115661127, -0.10201615494491424, -0.0674922849146789, -0.035023627599606325, -0.026006514468243428, -0.01354604504933215, -0.006263305562422064, 0.011714530437406955, 0.017790821138955235, -0.01328254980844848, 0.0035831413186998215, -0.0354826386208476, -0.03885301855211067, -0.03659975801565005, -0.03455280898851508, -0.03034628204010892, -0.012350590100709567, -0.011516987742732241, -0.04350073186740254, -0.054735802790985916, -0.030702949254580888, -0.004976389479416837, -0.018820607569799065, -0.02215128187156723, -0.01523050712353742, -0.01903171815570729, 0.0033504049719114, -0.03315012105578838, -0.01397594610897358, -0.033128974102060074, -0.06092553341417198, -0.0892237157102, -0.10639498573487796, -0.10487361489953699, -0.11471399011606959, -0.11217612523804742, -0.11514157785862253, -0.12313099353020865, -0.12855970056532193, -0.13418585255123472, -0.14653511913168774, -0.10344425078128847, -0.09614146453585301, -0.10789462652718398, -0.11455980666878608, -0.12845961453066435, -0.08541889792874975, -0.07742045056589467, -0.08329343902547581, -0.08516256144040732, -0.09415600141829261, -0.025614136023401846, -0.00769029133919099, -0.009030216476422317, -0.0036730452934344033, -0.00030148185938911644, -0.02981873135540289, -0.019660698109265, 0.008691914380290253, 0.0034936443350956697, 0.020745962951619838, -0.0061072474807885024, -0.018356546382296064, -0.026899035760924294, -0.03614756379078146, -0.027315613626860486, -0.061850993645383504, -0.03305028564137928, -0.0154882727076453, -0.014912910801724516, 0.012659011091642412, -0.019172454267032825, 0.006568495456546378, -0.0032060329974006544, -0.0077291999647408904, 0.013357320182770433, 0.050439506733864894, 0.05575404644890003]",True,0.8000,0.2000,0.4000,0.1000,0.2000,0.0100,2.0000,True
51,go,Hit,1,0.1500,"[0.0, -0.004875715638570505, 0.04145781335755749, 0.04924434864254475, 0.09060549067511907, 0.10669636406382071]",False,0.8000,0.2000,0.4000,0.1000,0.2000,0.0100,2.0000,True
52,go,Hit,1,0.1800,"[0.0, 0.03178093212875041, 0.08093297814401756, 0.07885780554026704, 0.07353196014014392, 0.06018621805186884, 0.07951650106604588, 0.09892923360292685, 0.1322977807831052]",False,0.8000,0.2000,0.4000,0.1000,0.2000,0.0100,2.0000,True
53,nogo,False Alarm,1,0.5200,"[0.0, -0.011411004743528139, -0.02710782869944875, -0.023504880349457108, -0.03345677872930733, -0.025636071098454883, -0.004133514802628378, 0.0016952039181996736, 0.002490083739366408, -0.012990670762925611, -0.006018848172984377, -0.01819686849783208, -0.017045623768983876, -0.008471244005524665, -0.017488404643152752, -0.0007686642431286028, -0.005384380489147364, -0.007096526564607517, -0.016130900232973054, -0.018189725503104815, -0.02246816740214152, -0.03852554852136976, -0.08083147343941952, -0.06756816574990472, -0.08368731427676715, -0.05521313888165992, -0.0670294012909571, -0.05808686296837469, -0.030140507767034627, -0.027886212030214574, 0.0019485776047822659, -0.0022904612422956277, 0.00459742097273741, -0.006119405425559128, -0.015548407696282365, -0.035859655664884874, -0.03390579486487249, 0.011734619819830774, 0.05219772370005812, 0.09110970519000808, 0.08315723719206551, 0.09308642596293046, 0.12750140480671196]",False,0.8000,0.2000,0.4000,0.1000,0.2000,0.0100,2.0000,True
54,go,Hit,1,0.3000,"[0.0, -0.018937086666582788, 0.016046482971798455, 0.005344522591271477, 0.0177280165684122, 0.031743388028198476, 0.028445983421536623, 0.016268328470927823, 0.01695379962365559, -0.001455754035014422, 0.012549208000915177, -0.005287851974089975, 0.0341776838732933, 0.039064301702884996, 0.032638598235119415, 0.030520090602004432, 0.0506969344609348, 0.03813304498330211, 0.05455640949755526, 0.09403411134454842, 0.11480375105981867]",False,0.8000,0.2000,0.4000,0.1000,0.2000,0.0100,2.0000,True
55,go,Hit,1,0.1800,"[0.0, 0.014048738042656952, 0.03985553890785204, 0.06721542522356831, 0.08104138747977568, 0.08891668456138908, 0.07771551304833817, 0.08357489352111266, 0.11419740940596783]",False,0.8000,0.2000,0.4000,0.1000,0.2000,0.0100,2.0000,True
56,go,Hit,1,0.4000,"[0.0, 0.022426220994920337, 0.013808399227857295, 0.010015539492656952, -0.008178589353329607, 0.011035078630247249, -0.0032090893001681785, -0.009153811224640152, 0.0016140599582928662, 0.01261270547398749, 0.01620880282789188, 0.00045911865389286835, 0.02781839303729581, 0.03204035463162871, 0.041817999120329144, 0.045058047220735635, 0.03713042179871964, 0.05788826714902978, 0.05259240041373173, 0.006691226044369697, -0.021214784780354747, -0.005648903175233647, -0.00955118026439563, 0.022296064679376247, 0.04621738902783176, 0.035511133806741764, 0.04749489851544961, 0.05555418033260197, 0.070347679437228, 0.05535506674125627, 0.1041331110580057]",False,0.8000,0.2000,0.4000,0.1000,0.2000,0.0100,2.0000,True
57,go,Hit,1,0.3000,"[0.0, -0.02285181924084751, -0.05688354389168506, -0.05136052520704456, -0.047647472367318346, -0.043093527642674115, -0.06186532191688089, -0.03849048961761821, -0.032616823646653685, -0.00975726026930944, -0.006541680203104014, -0.03839371764570655, -0.03141469432832558, -0.033313042748274686, -0.004523508903273847, -0.014708597368291245, 0.018883977852579763, 0.020384971541979574, 0.03571549458070826, 0.09775091921318618, 0.11311970663702728]",False,0.8000,0.2000,0.4000,0.1000,0.2000,0.0100,2.0000,True
58,go,Hit,1,0.1500,"[0.0, 0.025071792306768603, 0.04903825129693705, 0.05217908280962651, 0.07853338907760485, 0.13123852813488782]",False,0.8000,0.2000,0.4000,0.1000,0.2000,0.0100,2.0000,True
59,go,Hit,1,0.2300,"[0.0, 0.002109493322072078, 0.019548957724885158, 0.03592957314264119, 0.02278798890804603, 0.04390217069761196, 0.0702817964972356, 0.07402565928914534, 0.05970720921847321, 0.04284004541704929, 0.0494143008017302, 0.06804149627413716, 0.09995797065169301, 0.10294812414956159]",False,0.8000,0.2000,0.4000,0.1000,0.2000,0.0100,2.0000,True
60,go,Hit,1,0.2100,"[0.0, 0.016993319142286294, 0.0456297812885693, 0.06377594183822184, 0.06823851660914022, 0.08638049478225351, 0.08260392380653271, 0.08671261172355427, 0.08845197845617611, 0.07147901579748914, 0.07716068256049025, 0.10673803771706544]",False,0.8000,0.2000,0.4000,0.1000,0.2000,0.0100,2.0000,True
61,go,Hit,1,0.2200,"[0.0, 0.027214447884508663, 0.007028205076304403, 0.039601174926877286, 0.05282684687113129, 0.0579972155955555, 0.04475798631398756, 0.0354830518981812, 0.01055888407755863, 0.0003470081470018163, 0.02720782942746727, 0.07764953448172446, 0.13071964286848217]",False,0.8000,0.2000,0.4000,0.1000,0.2000,0.0100,2.0000,True
62,nogo,False Alarm,1,1.2500,"[0.0, -0.017502597560793552, 0.010139324673039105, 0.02690160481546025, 0.043044659463804695, 0.03722280673721189, 0.06278689761826058, 0.047271741288600164, 0.03873246319236036, 0.06190610213122755, 0.061139299946162746, 0.029106825207096496, -0.010738232392979205, 0.02511094099285275, -0.01268400181517007, -0.014584239140800816, -0.027504884252451484, -0.029421672048956998, -0.06783245180906515, -0.0647880416629559, -0.056952393833150323, -0.04960818002995346, -0.06015429970550876, -0.05326371997991678, -0.05695995315852188, -0.04505304363909811, -0.031198708152042398, -0.032694123361898746, -0.03786823123542213, -0.06307370044533277, -0.08988822632974475, -0.1148904175773679, -0.08337374328806911, -0.09285568610467687, -0.06452479726961183, -0.04466508645745368, -0.020023373468930745, -0.01883456284847159, -0.027862424983040944, -0.0009875282741513072, -0.01111656896305704, 0.009174357570082513, 0.01946159816809355, 0.03529823203185281, 0.05174380122805747, 0.05923087306338867, 0.0528485245302064, 0.07251489579732491, 0.09970467276045245, 0.07980406890761386, 0.061392338038106564, 0.036019787638199116, 0.030189869835092913, 0.013212147598994715, 0.04100430452019914, 0.006000386482188515, 0.0064430725672673, 0.00882328599178318, 0.025646988327700956, 0.022715866239048074, 0.009267320302750497, 0.008755919019029548, 0.022170810060288718, 0.027337397909090802, 0.02408737571802542, 0.008379899851836424, -0.00492161776896087, -0.009403527864651418, 0.009181829108364792, -0.03397113589020391, -0.01597603029053196, 0.0008298257037750133, 0.01595477856311994, 0.007470585744248446, 0.04423405923347806, 0.03399997327700337, 0.01568151563515158, 0.024588256706578698, 0.03063722572212798, 0.0624435917731341, 0.049563940937116815, 0.03706518659350446, 0.06175484223758544, 0.049916549172184646, 0.04957812743333173, 0.06916187826527763, 0.07262542105511054, 0.061172664400794455, 0.074886072328912, 0.09049369271790823, 0.07890587272574813, 0.05409314416958188, 0.04115096743136032, 0.019370999794916757, 0.012434443258971499, 0.012052847944971664, -0.015818900424776815, 0.001820656191907518, 0.005815059046303352, 0.008945646711175648, 0.01613472639763784, 0.010382388506526069, 0.020188878887805184, 0.02074224805221089, 0.004437817561123814, -0.01009738707557685, -0.000621473013794999, -0.026720140878073687, -0.0427062694175776, -0.03482168375478374, -0.01987929227354554, 0.024107969281710023, 0.006728958709304643, 0.06535012700719349, 0.0803625109595786, 0.10142758225609377]",False,0.8000,0.2000,0.4000,0.1000,0.2000,0.0100,2.0000,True
63,go,Hit,1,0.1900,"[0.0, 0.008558387242899358, 0.013126868195030535, -0.004040221317595764, 0.010237843407152605, 0.0420429446749473, 0.05497249859116661, 0.08363385748793423, 0.09886822324936685, 0.11494523245998728]",False,0.8000,0.2000,0.4000,0.1000,0.2000,0.0100,2.0000,True
64,go,Hit,1,0.1900,"[0.0, 0.04314191939223262, 0.048149146048133966, 0.054380252896350914, 0.028685324397934676, 0.06099714158736448, 0.08443043042821846, 0.09683073557381028, 0.08854996572070567, 0.10527328685693961]",False,0.8000,0.2000,0.4000,0.1000,0.2000,0.0100,2.0000,True
65,go,Hit,1,0.3000,"[0.0, -0.007032017880242311, -0.004887494030060955, -0.021236519116208684, -0.017418571717791112, -0.0014421019234789542, 0.0016425760596476754, 0.006313451693015464, -0.02137567767973171, -0.033043185715812454, -0.034874884049268945, 0.017832462996468325, 0.015861192190487046, 0.026296705914956288, 0.029714725034515152, 0.0328952463936418, 0.06630758179621515, 0.09145310469964961, 0.08447832035801411, 0.09637707464566994, 0.1199133811028309]",False,0.8000,0.2000,0.4000,0.1000,0.2000,0.0100,2.0000,True
66,go,Hit,1,0.3000,"[0.0, -0.016903285125889577, -0.00303611003401762, 0.006587524039110785, 0.011777497729850704, -0.020895094272824592, -0.023414101758507486, -0.019169051536393034, 0.02127275044580622, 0.026407597541945257, 0.0227584113616488, 0.025801163873041575, 0.03861674420970977, 0.04281524195532568, 0.05216295832354563, 0.06641889996126189, 0.07113115876129272, 0.09077093275886874, 0.08983851023276793, 0.09051960446674781, 0.10708969274654319]",False,0.8000,0.2000,0.4000,0.1000,0.2000,0.0100,2.0000,True
67,go,Hit,1,0.4300,"[0.0, 0.005008617273374511, 0.02791342345438132, 0.023015367493386972, 0.006557439758026903, -0.023729625478705357, -0.02343451100783721, 0.02117718304246836, 0.03669282243848417, 0.04196023685054205, 0.027180006881150704, 0.016254484221100828, -0.021698046967883116, -0.02179574288988497, -0.018640174215437816, -0.006070479207378753, 0.020396991640480245, 0.0568716667274628, 0.06420607819365524, 0.04199706174404917, 0.039999202235983425, 0.05530104786459812, 0.03849382634638567, 0.04879278734570604, 0.05349002305810609, 0.059376550606890025, 0.07406794413834987, 0.05060361303444951, 0.03716225253282018, 0.02144761347442382, 0.042018606372903694, 0.06380287478604615, 0.09872813445489192, 0.1283298066744039]",False,0.8000,0.2000,0.4000,0.1000,0.2000,0.0100,2.0000,True
68,nogo,Correct Rejection,0,2.0000,"[0.0, -0.02192397177192574, -0.029898146573865872, -0.03818997705140184, -0.048134907218666395, -0.021246817329627125, -0.028900555488325545, -0.010011226180271435, -0.016353359263202142, -0.012165123373764257, -0.008485648641905139, -0.011243008297019429, 0.010221141628880812, -0.023627506155323427, 0.017329276956051076, 0.029053466604447145, -0.005802127411867267, -0.017406148577743225, -0.016052031381169903, -0.06098145150566307, -0.10097495592228944, -0.10140940055733713, -0.07425880210260387, -0.044858884621064604, -0.05574740191266548, -0.03809387698718926, -0.02710566624642749, 0.0011257647471510784, 0.022471713779244555, 0.0007028654742152821, 0.00235381597823151, 0.007838079422874894, 0.032573317554617606, 0.050635150248367684, 0.02616777741714957, -0.003478667753879311, 0.006793040559390003, 0.024562005513777484, -0.0025841296231507924, -0.027192564117205543, 0.003859648489669281, 0.0027722791933870805, -0.04932065959181495, -0.05697554130799093, -0.07291357901107631, -0.08166061352168577, -0.052415027920270627, -0.05631987796205029, -0.04630085749573513, -0.07082852636495812, -0.0992851192920316, -0.10391496043798096, -0.09668520038434326, -0.11046597832692513, -0.12859352893961548, -0.10480529635340355, -0.07251329062626047, -0.09087476047041995, -0.07311219714988235, -0.08985613175387352, -0.13416718482880122, -0.16620001263327278, -0.1688820914580765, -0.1379727948555805, -0.16468192711928073, -0.17206906899065233, -0.204968391510666, -0.16191724544236322, -0.1596472453190272, -0.1462210046300007, -0.14808663811464198, -0.12969265762410914, -0.1427458115903649, -0.1643291128374699, -0.1691116659418078, -0.17853947455669722, -0.17200054285634284, -0.15069974567334954, -0.15310435318303864, -0.16508012056647423, -0.18418681951067845, -0.157513352172322, -0.18038954975625496, -0.16778137111633473, -0.1309527290036639, -0.15420824617598078, -0.13963464799715286, -0.16269573520474298, -0.17757396218062954, -0.15758519326630724, -0.21442788792521436, -0.21213477568147954, -0.2006009152904186, -0.22899828305553752, -0.2289046849245697, -0.19510404640459478, -0.17252677357524326, -0.1808221928882017, -0.19495305516307287, -0.1621597865906032, -0.1556448921576357, -0.16209854596589585, -0.16589860623523603, -0.1428877006239677, -0.15235114068133498, -0.15218607003831408, -0.15376218020255983, -0.17120706366820448, -0.15740035211107647, -0.15947797674021247, -0.16645754679254177, -0.15673304613191102, -0.16956685881060254, -0.1828003029544824, -0.19457721597601157, -0.22811573198802954, -0.2408773879573152, -0.29926975227656455, -0.23384021946561945, -0.23726076332053994, -0.25807354935131177, -0.29878863875902195, -0.2814982058304508, -0.2736699585268788, -0.26320754286086456, -0.29316746055248066, -0.2886503491902808, -0.30256042973868136, -0.27125807071615016, -0.24212505697513548, -0.25491800227333455, -0.2487623288838723, -0.22472346751097905, -0.20178906933660468, -0.20172640021740973, -0.22389859460747016, -0.2172435487979183, -0.1908628769734701, -0.17968187862244744, -0.1659094361195804, -0.1347152036717704, -0.1485398225770067, -0.11993600806579058, -0.11700692302848073, -0.09906470358202388, -0.12074749175221339, -0.11812063029257037, -0.13808106168040413, -0.1528785246661689, -0.17308462478152556, -0.18340544744186715, -0.23680890767076213, -0.2550427732877496, -0.23681799714014626, -0.2539051825174843, -0.2461885738256309, -0.24069999932322572, -0.24266964058452792, -0.23517940256922995, -0.20470909246471536, -0.1956757202623128, -0.20181436431024918, -0.2032689033777736, -0.21352524681316956, -0.2304723036524725, -0.25111105869049744, -0.23590711129532843, -0.21376550592961419, -0.21894717962621182, -0.2660001366345274, -0.27123785385403665, -0.2681138681177078, -0.2801757179028639, -0.29022585047724425, -0.3034194751978317, -0.28287924976256384, -0.30035447899363255, -0.30673405819773497, -0.30061326510180203, -0.32254454369259167, -0.32355551097353963, -0.311691802154509, -0.27552440525667954, -0.2604868102356452, -0.24742871928750038, -0.26192941876667913, -0.2608787953121474, -0.24910540544090595, -0.24353253189501947, -0.24996893923871852, -0.23366543281223745]",True,0.8000,0.2000,0.4000,0.1000,0.2000,0.0100,2.0000,True
69,go,Hit,1,0.2500,"[0.0, 0.03975789143951162, 0.03976608864709199, 0.03632925374421535, 0.03785351761138957, 0.0029003117174636744, 0.04060788910530764, 0.03397396046277831, 0.06673699026555496, 0.08103769033559005, 0.08539205382653312, 0.09191879733709721, 0.09087227416656761, 0.09676920544596625, 0.09886472521577802, 0.13101510846273073]",False,0.8000,0.2000,0.4000,0.1000,0.2000,0.0100,2.0000,True
70,nogo,Correct Rejection,0,2.0000,"[0.0, -0.016232686290992074, -0.04496360697228291, -0.06834064980173704, -0.04512950067325311, -0.02876375495806791, -0.03700522061669037, -0.05952042800347016, -0.06906617703266552, -0.025186991565783662, -0.03968399309126869, -0.022581114086078203, -0.03868904633759984, -0.009406738336540328, -0.04015943294310541, -0.03970604459750055, -0.07846357276664502, -0.11072103633961708, -0.10684871545026518, -0.10489135037033431, -0.09663006201119505, -0.12272037342349573, -0.10382979498658036, -0.10048809070125347, -0.1265391540090776, -0.13036278120898723, -0.13704789731188824, -0.1437214501044563, -0.18713950684477693, -0.1966454342942818, -0.19157061418157956, -0.1692239804464842, -0.18535325775278796, -0.19626343790278672, -0.2007428184810164, -0.19464477516648712, -0.21819273439237657, -0.19980228671172948, -0.21884206416000448, -0.21018358337712165, -0.2143098000771425, -0.25831339980781903, -0.241672769859855, -0.21839473001183662, -0.21278705983090077, -0.23927009301050894, -0.2618471670715201, -0.2545795736909965, -0.2492500193219058, -0.25174201851146116, -0.23695039389126615, -0.20016511779932417, -0.1834064731422958, -0.17855064948183427, -0.1671734816495384, -0.1628970058151849, -0.18077614157923771, -0.17796099085004838, -0.16365910651993862, -0.16465864588580315, -0.14984459037625555, -0.17830613807895984, -0.1919827150335784, -0.17397213320092672, -0.12450258026188082, -0.17646983232088723, -0.16345726402707694, -0.14079853035690143, -0.12193638334179516, -0.13004364645012692, -0.12138776805079704, -0.135915243534554, -0.13279555563132658, -0.13927453244063737, -0.13084475777737037, -0.14719631902299074, -0.15605232417253706, -0.1457870506146891, -0.13929386691616455, -0.1074532042983117, -0.14846499946507727, -0.1632824714756652, -0.15984322004231735, -0.16004303925955632, -0.1508434021282515, -0.12285840994482203, -0.12793920146001506, -0.08847002884886587, -0.07176777777762429, -0.07186344755400997, -0.09501082729316855, -0.10081760610272164, -0.11206479330385988, -0.115669048295731, -0.10115871695792723, -0.1341076920911572, -0.1241404312859328, -0.12857198978569365, -0.15384727830952902, -0.1441202235914091, -0.11689685502576633, -0.11793075135565055, -0.13672529882314877, -0.13574194674362003, -0.09625445951890112, -0.05138864817840825, -0.0741282652390467, -0.10358095374386954, -0.10661821170300533, -0.11337135020502631, -0.1019582913377298, -0.13041371390461273, -0.14325415516330978, -0.155633313624867, -0.1261113957977274, -0.11408409851538179, -0.12337257781674704, -0.11571965954162705, -0.0953869314321734, -0.10459350917498936, -0.12746851382965374, -0.1750785760881785, -0.16398303312847734, -0.1608965440490192, -0.16562117223263598, -0.18858974135816206, -0.1688930283297354, -0.17161459698177323, -0.17069054017294016, -0.20205329030110397, -0.15850878117705403, -0.16821042717537946, -0.19944969070022445, -0.22770409452591958, -0.18900795506862544, -0.20230282978490474, -0.1945173438095458, -0.2536877042467057, -0.2821863516228109, -0.23966868344785508, -0.22991099970682424, -0.22791568729805795, -0.21804572881198575, -0.1773312583900746, -0.1786147446468782, -0.18870842851658284, -0.16098819003880532, -0.172491335347776, -0.15774087954718483, -0.1416740067037342, -0.13037400712382125, -0.11735050565164999, -0.11208477655497893, -0.13448945774877463, -0.10685922235268899, -0.11029696807437833, -0.12699287893663894, -0.10860632251898643, -0.09978617266520348, -0.08589134924784511, -0.078419800869495, -0.11559219902387745, -0.14832462914082856, -0.14029678261086623, -0.1338231931765739, -0.16293776424249007, -0.1624703471808016, -0.1566188572964089, -0.17509699993686156, -0.15721756051057792, -0.14716837560079316, -0.14006118807841372, -0.16718097989399652, -0.15699201689941863, -0.19192900928672038, -0.23306368924786972, -0.23833643452656803, -0.24705013537822876, -0.21624861388964817, -0.216917265312797, -0.22995580303124435, -0.21844332651964643, -0.17515787485757692, -0.12147439033083685, -0.11061328267509973, -0.09247990144287077, -0.09854099811207039, -0.1269497781591264, -0.13752946312683278, -0.15547159238787334, -0.11415526498406431]",True,0.8000,0.2000,0.4000,0.1000,0.2000,0.0100,2.0000,True
71,go,Hit,1,0.2100,"[0.0, 0.0010905324903707873, -0.02606438002013443, -0.016682462350211685, -0.023296931750348825, 0.031026971690879382, 0.05154471899080804, 0.08644787245903728, 0.08530795844038389, 0.06527031194799321, 0.0676969328701173, 0.11002413578336545]",False,0.8000,0.2000,0.4000,0.1000,0.2000,0.0100,2.0000,True
72,go,Hit,1,0.2200,"[0.0, -0.001944399001921386, 0.0410858364226913, 0.035194803575142194, 0.04053567445994703, 0.062233296419823246, 0.05292211493821643, 0.042280682657788775, 0.033247564204699556, 0.025720582634792544, 0.05185830026616045, 0.08394228861153641, 0.12475626336816388]",False,0.8000,0.2000,0.4000,0.1000,0.2000,0.0100,2.0000,True
73,go,Hit,1,0.1500,"[0.0, 0.02214401139783277, 0.02872888846065669, 0.03760690856769165, 0.07965888902650299, 0.10702805919583469]",False,0.8000,0.2000,0.4000,0.1000,0.2000,0.0100,2.0000,True
74,nogo,Correct Rejection,0,2.0000,"[0.0, 0.03237385189676962, 0.000864188305081566, 0.027586814167304602, 0.03704984613687919, 0.022385760713413957, 0.04611702650725351, 0.02422790769710572, 0.023113703515108955, 0.04969149805681257, 0.02317315434957435, 0.019907250051412514, 0.024638359745808046, 0.045924965174617124, 0.03930341122399229, 0.019023010842446928, -0.003462524323329025, -0.03261142279950795, -0.09191003906660643, -0.10828854681670777, -0.11981555763315774, -0.1100163572524219, -0.10568972331943068, -0.09362821979694606, -0.08185933935722475, -0.10110070380069941, -0.10860675798730007, -0.09565747893185508, -0.11608054209488201, -0.12593289208870312, -0.1331337217862607, -0.11998021203051301, -0.13984604262463518, -0.1325636710269131, -0.118958252925093, -0.10491195301318151, -0.0515940296166549, -0.06541889738850235, -0.05514118932415036, -0.04360010562683962, -0.04134700936100548, -0.03415702390831091, -0.02874769306401464, -0.014387044918283973, -0.00758702459512808, -0.03316162479368448, -0.011053730956817196, -0.017998923175725056, -0.0029839703751600236, 0.002688850531869496, 0.01199065265055047, 0.00698952079561241, 0.010334872243081678, 0.0001567832425464974, -0.027035236913865925, -0.021491587051297244, -0.003714875415363056, 0.011435256159599099, 0.009006002826986857, -0.00045583121711935057, 0.025163830192655216, 0.032052556059017495, 0.005191798872226705, 0.02857481824454291, 0.02913076809651547, 0.046123467251669915, 0.04254513723752309, 0.026593149864338205, 0.013955254022546389, 0.047002144981119, 0.013235488580644245, -0.0007293562682261015, -0.009933056750242817, -0.011985737518225166, -0.046641432114810824, -0.017108360436810518, -0.011075440923637691, -0.04095630335506926, -0.07262857535933376, -0.06504723823229472, -0.10576899533612111, -0.12245881627179843, -0.11813125958630165, -0.1658666228545378, -0.18111646699278522, -0.19532250889746225, -0.2167013449322837, -0.20972343687268552, -0.21188343902631845, -0.19429318810705087, -0.18601747289143805, -0.17756788207424656, -0.17446143979881226, -0.19698339980826923, -0.19168208119574065, -0.19909957469384681, -0.18827954768187113, -0.1569441036649807, -0.1940466387019008, -0.19778086905225073, -0.23271584040354293, -0.2610193757074232, -0.2719538972738809, -0.26664609591094274, -0.2938749508862967, -0.28653425517496645, -0.31141939942286107, -0.3060846193181056, -0.30264877029478227, -0.3245357214458775, -0.3328108903484505, -0.3114000052155381, -0.32095750339973844, -0.33455023496585146, -0.33568333017345997, -0.3104533961350115, -0.32564747779318515, -0.3469641027765904, -0.32386670526398215, -0.32958749316542646, -0.3337198611424365, -0.33317641270554527, -0.3503728249992129, -0.37114362232857084, -0.4277287324309309, -0.4580287907268094, -0.4368681410821848, -0.4391922329778991, -0.44251711891795037, -0.4499341058021974, -0.4262634328448128, -0.4382350798159271, -0.4203293511838695, -0.40028378697716915, -0.39977463014170667, -0.40377874680089276, -0.42164710766854385, -0.4624132041654138, -0.49428994417683125, -0.4849512534492965, -0.48105061197515797, -0.44532299037020096, -0.43150445337555476, -0.44822287051878595, -0.460507849129379, -0.4572195367367666, -0.4466843589405531, -0.48321155911988056, -0.47330625962614087, -0.48794260235748205, -0.5101041435662345, -0.5298650933287927, -0.5405109639816337, -0.5395249163376101, -0.5510023578081593, -0.5826151530832374, -0.568825414701844, -0.5380077457020822, -0.5409966026538066, -0.5355623161370594, -0.5164008899564038, -0.4991961270293848, -0.49265264045779, -0.49477567482450385, -0.46622997947528017, -0.467026378976672, -0.4530588259300633, -0.4253273212937985, -0.409537223668027, -0.39276373921457375, -0.37555975758163884, -0.364440597495386, -0.37051297720191606, -0.41227652388519326, -0.4132394076105657, -0.4495923428740244, -0.43753127586310525, -0.4118793214435179, -0.39889507022172915, -0.38937031018737756, -0.3774809232795003, -0.4074001479039748, -0.4137071649289514, -0.43898336283916284, -0.42902721723283854, -0.43102824483213414, -0.4631919413258322, -0.47886849477744253, -0.45749486467676764, -0.44952614127760143, -0.4273099779530286]",True,0.8000,0.2000,0.4000,0.1000,0.2000,0.0100,2.0000,True
75,go,Hit,1,0.2600,"[0.0, -0.00181136746845224, -0.008670400065231844, 0.020929007751216658, -0.00869019501119489, -0.008763543929011658, 0.0031664976182362893, -0.015050155964719487, -0.018797402431072203, -0.012622002367580012, 0.022756117800898996, 0.043293168986273764, 0.036252844892688964, 0.04515276405513118, 0.06717077968661987, 0.09400880421676491, 0.1251877108003156]",False,0.8000,0.2000,0.4000,0.1000,0.2000,0.0100,2.0000,True
76,nogo,False Alarm,1,0.2200,"[0.0, 0.007529821813279835, -0.006634313529263785, 0.027303317586256596, 0.0701568708976296, 0.0839708010726562, 0.07998152653540552, 0.07731608341509509, 0.05750541517155841, 0.0574064067977302, 0.05354687729100154, 0.08305098399359066, 0.10699074720715791]",False,0.8000,0.2000,0.4000,0.1000,0.2000,0.0100,2.0000,True
77,go,Hit,1,0.1800,"[0.0, -0.0015360449177623352, -0.01134466540940477, 0.021841334595174018, 0.045649066506310565, 0.054757046183021886, 0.09989314041923575, 0.09214733424328256, 0.1195960990449528]",False,0.8000,0.2000,0.4000,0.1000,0.2000,0.0100,2.0000,True
78,go,Hit,1,0.3700,"[0.0, 0.004144999197815344, 0.007403652999519148, 0.033633414279274146, 0.026838741085174853, 0.023744655260713267, 0.025104703932322586, -0.00232753990326387, -0.030096535721954303, 0.02299891845915751, 0.0510367406819004, 0.08950383657896804, 0.0891020384969838, 0.0705161677200578, 0.04146835259270822, 0.0463571276901912, 0.037355616954646606, 0.04432090620791792, 0.0382384730069061, 0.043062397387252496, 0.07732646451219957, 0.08523865700228399, 0.09512261334993043, 0.08361083173514026, 0.06571728052272523, 0.07750816298355905, 0.09630802027843832, 0.10370096767096823]",False,0.8000,0.2000,0.4000,0.1000,0.2000,0.0100,2.0000,True
79,go,Hit,1,0.2100,"[0.0, 0.019146219966044604, 0.0230671669739291, 0.04239770654980095, 0.06762948925373295, 0.08918475982089916, 0.0721721065235354, 0.0690331798135393, 0.0684015816213392, 0.055514823819286886, 0.0727424209380715, 0.11422603545105631]",False,0.8000,0.2000,0.4000,0.1000,0.2000,0.0100,2.0000,True
80,go,Hit,1,0.1700,"[0.0, 0.012439425465445575, 0.01781779544486689, 0.021501669141925927, 0.015241771834863653, 0.03904110134884252, 0.06422553561932842, 0.10741814297200636]",False,0.8000,0.2000,0.4000,0.1000,0.2000,0.0100,2.0000,True
81,go,Hit,1,0.1700,"[0.0, 0.007727575290898522, -0.010378689101284113, -0.011395782999663043, 0.01975608992210448, 0.04069250565601957, 0.08381189833090294, 0.1268970166463077]",False,0.8000,0.2000,0.4000,0.1000,0.2000,0.0100,2.0000,True
82,go,Hit,1,0.4700,"[0.0, -0.011358836966478648, -0.008227818941729845, -0.022868028510155597, -0.034165918881286075, -0.029221585567909533, -0.03873334661415354, -0.053034787676806756, -0.03850722161844239, -0.03686480204856486, -0.024417185932745483, -0.06601827340060461, -0.03732060446814963, -0.0069693595199645, 0.0027552037839707784, -0.023171884249959484, -0.010270354447650733, -0.007224906438535017, -0.024849107511136077, -0.0394702514890341, -0.05879150257779475, -0.06704087817546404, -0.06599549879546242, -0.049034120790364635, -0.04555417067493138, -0.04147596290238587, -0.017787206798953265, -0.013352259745436478, 0.0037249701423421842, -0.0007572284811949073, 0.004506879948930273, -0.006067592305622566, 0.017821409963771427, 0.04650310398697689, 0.07527493061242063, 0.08859727582565576, 0.09157385559459201, 0.13726276409268956]",False,0.8000,0.2000,0.4000,0.1000,0.2000,0.0100,2.0000,True
83,go,Hit,1,0.1500,"[0.0, 0.009929538040780464, 0.0032341334604930796, 0.04419048481285729, 0.09535874437775052, 0.14198234686218697]",False,0.8000,0.2000,0.4000,0.1000,0.2000,0.0100,2.0000,True
84,go,Hit,1,0.1800,"[0.0, 0.0039030224149858303, 0.01707988882252608, 0.057094414106618835, 0.06095177056983945, 0.0706474662823165, 0.0870998105593, 0.09957253673959697, 0.13699252125149183]",False,0.8000,0.2000,0.4000,0.1000,0.2000,0.0100,2.0000,True
85,nogo,Correct Rejection,0,2.0000,"[0.0, -0.013429116379059943, -0.02358765596419874, -0.05249150599977964, -0.07902910693715491, -0.0946164334153293, -0.09299002091096922, -0.09394352811055508, -0.13264182045612474, -0.1318941271096056, -0.09404668590409157, -0.08917265214389686, -0.06709292579229313, -0.028009610462313955, -0.045725385385736596, -0.03740968666681092, -0.048477168976746685, -0.06504670513977498, -0.06803240131479901, -0.0560027569461553, -0.09495306043556959, -0.042006127606932946, -0.0014634701462032385, -0.015550463693134084, 0.011196001608890215, 0.0006279809612683186, 0.043306574248123134, 0.03404661330660687, 0.02218355128074817, 0.013217572751042779, 0.02878851856724534, 0.0344873789244548, 0.03587044359325693, 0.010909332384058047, 0.03361675063940196, 0.024179640831444076, -0.0090143158475713, 0.011365505403903173, 0.03926605960156439, 0.07245031213661621, 0.08109048253061932, 0.07193086653228638, 0.08358797590685922, 0.04281072234177072, 0.01987243891445647, 0.028448910809819823, 0.04206419065312436, 0.020864374869636722, 0.04915577781466556, 0.0172747678523845, 0.025110945239318727, 0.036731924490704906, 0.02859889194861076, 0.04635041719782154, 0.048801984217846706, 0.05956426332534079, 0.0666873427668269, 0.03769335983159316, 0.04769207219696691, 0.01483753653185508, 0.0032149692713880317, -0.007386219210396663, -0.023148147750056497, -0.03968339405139971, -0.03475544059945881, -0.05869570659033227, -0.059041879518411035, -0.02116538247523797, -0.03888834214708864, -0.060952367697214835, -0.11413985120798359, -0.1302961976331165, -0.17264449397672493, -0.1866537909099741, -0.18242968031232148, -0.18980413684749234, -0.18628231459324426, -0.1793560978017486, -0.18599435504694875, -0.18861396976044925, -0.20612074339593098, -0.2380361195240529, -0.26615283451961586, -0.2876892850559345, -0.30467975922624435, -0.2707995129768692, -0.28631822711042365, -0.27337948098549214, -0.3264451344382248, -0.35986649844512797, -0.34453798214728204, -0.34044526596664937, -0.3584781161514808, -0.3695895045208047, -0.36034812502141816, -0.38729512205803684, -0.40079382044017975, -0.3888611058283725, -0.38807576362497315, -0.3895437949535187, -0.4179923366004808, -0.41550242418167954, -0.40326746110713735, -0.38243437813247866, -0.39470611258929106, -0.38268745126194026, -0.37060583035763794, -0.373076196931267, -0.36433987866782, -0.3783052672415723, -0.3904884886311908, -0.41724616771712986, -0.3966305431406774, -0.41013114362957187, -0.4290875286234045, -0.42155689294305154, -0.42591772432899705, -0.4356446337221246, -0.4355598018136438, -0.446454660218169, -0.45598687560298645, -0.4508964245123637, -0.48510970699109657, -0.4718388507289396, -0.4820831782385866, -0.5076253236210826, -0.520624362076253, -0.5498296916437203, -0.562299184807185, -0.5584868740172872, -0.5832520569949995, -0.5926724771886035, -0.6071513189528959, -0.6193693157738169, -0.6290013854704928, -0.5882510521968511, -0.6254761994899342, -0.6237271728674324, -0.6427155587885225, -0.661222439658078, -0.6589435797859036, -0.6537754342882391, -0.6396116990355518, -0.6552440399996008, -0.6774910939733217, -0.6536053571585199, -0.6568160353185201, -0.647078804497507, -0.662998850703439, -0.6647731231677526, -0.6433346727805823, -0.6371118138837176, -0.6315313487873634, -0.6034141068458474, -0.5795576834538819, -0.6075727030794125, -0.6039074468867387, -0.5629616361009037, -0.5785672918697288, -0.5908016850879465, -0.5771560345403886, -0.5728998572592783, -0.5476460908518589, -0.5309480969281226, -0.5075379828210768, -0.5259837509338942, -0.5208336947678313, -0.5218326735740211, -0.5002631980771425, -0.48675248058894816, -0.48628974950608866, -0.48667876742937305, -0.47712088413610626, -0.4623858323385562, -0.4795673787727756, -0.49644013315582974, -0.5029748420043458, -0.5006613086642103, -0.47490419900375713, -0.46758533481612286, -0.47655762723049794, -0.48240759074133377, -0.48473457917939566, -0.44034247203941956, -0.4473795700063435, -0.4518173480631289, -0.4639473266112943, -0.45255354546674387, -0.4563434191815084, -0.4731861261969179, -0.4418225032626734]",True,0.8000,0.2000,0.4000,0.1000,0.2000,0.0100,2.0000,True
86,nogo,False Alarm,1,0.2100,"[0.0, 0.013864517907675709, 0.010781556205786262, 0.02100714604437596, 0.013807435315315034, 0.029871733811251425, 0.015500541800134273, 0.03010925581411085, 0.01988746405007002, 0.06057200477437867, 0.06902974402999214, 0.10684514948364021]",False,0.8000,0.2000,0.4000,0.1000,0.2000,0.0100,2.0000,True
87,go,Hit,1,0.2300,"[0.0, -0.002446249597468206, 0.027539308994489774, 0.004584474103808245, 0.012882483895381191, 0.004035341558833802, 0.008520698729978429, 0.01525695278654087, 0.017371205615498538, 0.031621339729647244, 0.060432918568225656, 0.09162840161372174, 0.08959005570242637, 0.14360724006627446]",False,0.8000,0.2000,0.4000,0.1000,0.2000,0.0100,2.0000,True
88,go,Hit,1,0.1500,"[0.0, 0.003987119513974736, 0.012828539400751241, 0.01663538556719713, 0.06700735375374078, 0.1029093958896922]",False,0.8000,0.2000,0.4000,0.1000,0.2000,0.0100,2.0000,True
89,go,Hit,1,0.1400,"[0.0, 0.04342735787050065, 0.07978257135012955, 0.08968800654370797, 0.11134404000193103]",False,0.8000,0.2000,0.4000,0.1000,0.2000,0.0100,2.0000,True
90,nogo,Correct Rejection,0,2.0000,"[0.0, 0.0058954872870430755, -0.013685888487126353, -0.013571799388880784, -0.002265967630570775, -0.004654523109674135, 0.03143982797841341, 0.033491915275343724, 0.024422987923679917, 0.009341614988799428, 0.0012576255888203484, 0.000590543486829728, 0.02271492524206622, 0.029042559543878584, 0.024325882602143255, 0.0043494291302638224, 0.01521204092041067, -0.015983398226423473, -0.03921563569070908, -0.047034513169686584, -0.06364870382115731, -0.07210036769393088, -0.08446387556387433, -0.06278969232412718, -0.06704979885214554, -0.0911490867789908, -0.04947633205409415, -0.03357536249674023, -0.06576945086164902, -0.06092108133836915, -0.07581745578676718, -0.04444667047146015, -0.031609827204928775, -0.04213303450706356, -0.045855015948710845, -0.051696112916049496, -0.035449144875230335, -0.03380645354967456, -0.06354387675655887, -0.044613923429570136, -0.03325791638207306, -0.06225920702212481, -0.07145892270594285, -0.07549894985446409, -0.07361741325255133, -0.07706750401364024, -0.09565114505699358, -0.0903211691150782, -0.09206851876786153, -0.08690763516471466, -0.11019117813014605, -0.1156955637376552, -0.11576221693854978, -0.11289424510512888, -0.08149431049852213, -0.10809660865328459, -0.10662414614126867, -0.12982005010755257, -0.1367095905627802, -0.15370393046336184, -0.18306472083172964, -0.1367432794347, -0.12968099007395334, -0.11852130735938086, -0.14161799389446073, -0.1396587234370733, -0.13564924128560021, -0.1580539268080794, -0.15967503711128092, -0.17644238919458977, -0.16374726179078575, -0.16315743712005665, -0.13469603037169184, -0.1087162980001332, -0.09743253848127956, -0.12373316315433956, -0.13386447462130704, -0.13808571019067933, -0.1618054605231635, -0.1563021561984756, -0.14941051981177905, -0.1737068340750267, -0.19427980023837654, -0.1870461853789373, -0.18111559998197227, -0.23447978624371552, -0.2473177326839537, -0.2159224842730159, -0.20432531918725572, -0.19854771726592016, -0.19227601116519136, -0.15612453705176627, -0.16575015580473196, -0.1827285951310695, -0.1777594069536771, -0.2118886282111099, -0.2369989047793406, -0.2526982359956694, -0.2520139328891939, -0.2249753660982369, -0.2638116347646767, -0.2927251110870964, -0.2633357032374879, -0.27243360969304947, -0.2863905992016839, -0.27660041820352865, -0.2901378625726029, -0.2653556832295977, -0.27432350709418213, -0.2836687669914294, -0.28032983990505156, -0.27645275343467723, -0.24957822257838275, -0.22641138876293512, -0.21009898659628706, -0.20666173920563732, -0.22301952791026708, -0.23799353903130094, -0.20280831657272896, -0.24442528358350146, -0.2589950472540487, -0.25422839908516515, -0.28842482789031415, -0.322317535253989, -0.3380253068049146, -0.3134265168232343, -0.2926302042651396, -0.29081987629820105, -0.26093089873483105, -0.2735372927501358, -0.2683342385689342, -0.28503456140302913, -0.28437188412796854, -0.27265776518900176, -0.26119134463338906, -0.28112141385450445, -0.23315130614349103, -0.21814085619141377, -0.22016458668700464, -0.23116233836874422, -0.2368794045065024, -0.250181319039321, -0.2395732117444293, -0.2473648776385565, -0.24351855684340418, -0.26538527457875966, -0.2752707232036813, -0.26758324184341786, -0.2769441452835128, -0.2733461633708211, -0.25537386492108666, -0.24602128955163952, -0.2620229690304652, -0.24299203509517542, -0.2329366265755843, -0.20951867910549282, -0.17258575993701658, -0.16892943498609952, -0.17029874506023648, -0.17559947936387885, -0.17921892761479527, -0.18354395497954526, -0.2041101121304827, -0.22691389732093398, -0.25957150379953653, -0.25204930223343414, -0.22669944633281078, -0.2348011450295768, -0.2225145792192848, -0.23637124952309677, -0.2544265836565343, -0.2302805496215071, -0.2143237812069207, -0.2191349056203697, -0.2083551513262565, -0.18632439097620515, -0.19427415183571567, -0.1966465918794325, -0.18860261851420293, -0.1940632749508797, -0.204590079229885, -0.194172979393048, -0.18322648147883622, -0.16726374729699797, -0.16297588450103276, -0.18519049466806553, -0.16379222136173394, -0.15535653988504775, -0.16023082565880203, -0.18213589902606403, -0.248499426688244]",True,0.8000,0.2000,0.4000,0.1000,0.2000,0.0100,2.0000,True
91,nogo,Correct Rejection,0,2.0000,"[0.0, -0.01383121046011497, -0.0487955794030121, 0.0013568253108484363, 0.0020631284325511984, 0.005300471544082582, -0.02321948477340506, -0.019797232092979396, 0.004217721944699181, -0.010280406043915733, 0.017723574739295617, 0.018241956488782674, 0.02589165047304892, 0.03374766487629829, 0.027930779050821232, 0.030520209382935128, 0.013141146021030475, 0.023187126027828714, -0.006557951164716823, 0.007237669483262311, 0.02193281549694357, 0.026498453676825195, -0.00042962095752124146, 0.0006907464818000657, -0.001032695820110025, -0.010225642410572083, -0.02805955003837376, -0.04695150229353237, -0.04785700149074213, -0.05392416725971228, -0.0598231917917543, -0.0796903836884621, -0.0700424048069403, -0.07692558253862951, -0.060278508068771955, -0.06850987044448292, -0.05268992812916594, -0.06720030743649183, -0.09277614424915434, -0.08424577678796831, -0.09623935703324682, -0.1145373208665523, -0.13183505249189145, -0.14106932484500156, -0.15008930217659067, -0.17486955509168875, -0.17364896527061824, -0.1986003506561038, -0.21332446620909978, -0.2421249096044289, -0.24647876625743045, -0.23678043454561984, -0.24625683133348214, -0.23534069587892234, -0.20911913305510607, -0.21493714540887354, -0.18037813575146713, -0.1543678317531759, -0.13133425407841115, -0.14178636504325037, -0.14948287635817165, -0.13890336217882931, -0.13650313820386517, -0.18122916207542938, -0.20177498085702472, -0.2287077116578382, -0.2361343053749262, -0.24365803712673456, -0.23895467496530745, -0.2756130715435243, -0.26507762188991874, -0.27647876435550395, -0.26811794268457173, -0.25688598741090446, -0.2639781123706468, -0.28806343815045166, -0.32034463774832667, -0.3298118187058201, -0.3221678978664345, -0.34363577527498473, -0.3151147472075881, -0.32565251683034485, -0.3304096277488585, -0.33091619931931343, -0.3246054184985049, -0.2985412660767706, -0.27842796810564546, -0.2620358266056294, -0.23180816028177695, -0.2543775395361742, -0.28217753611618973, -0.2859940267878081, -0.28486836153220246, -0.28661836112319705, -0.27273644526328955, -0.2596279422286277, -0.2614769658732408, -0.270727138952735, -0.27546466232893924, -0.2778231190284176, -0.31016097007225163, -0.30587297801228175, -0.31329345523940344, -0.27236299834060257, -0.25724412338359803, -0.30005410514142417, -0.32086047240374804, -0.2955496256567877, -0.2843996675090119, -0.2898253838882655, -0.2513063090980252, -0.19777407634084504, -0.20825858414640736, -0.23764014657505464, -0.21627369143173, -0.21392817190542363, -0.21970503485745352, -0.2233677384585152, -0.2356997422549226, -0.23980583644379055, -0.21658274894090185, -0.2409451474437612, -0.223619755005659, -0.20566387643869594, -0.2389941427035268, -0.23232982135944658, -0.23232348448975754, -0.26993547584427613, -0.28231347050252614, -0.2940675281467434, -0.3226589325884837, -0.30044083547610606, -0.27992643695104347, -0.31948918622877975, -0.2938481042641764, -0.27492624045039216, -0.2829021110254157, -0.2918941034959564, -0.30736745465161286, -0.28352847841744855, -0.2945324909819652, -0.31346978901631883, -0.29369459689274824, -0.32860689006601607, -0.33513306895278555, -0.2999285895104792, -0.25926677843995377, -0.26868203834480964, -0.2851391380971283, -0.2531496077806862, -0.22304200533914453, -0.205367147244798, -0.20252657314884506, -0.17814590379690556, -0.1832512717333752, -0.2228937777202146, -0.18754472102328895, -0.17018264641371825, -0.16199340473074564, -0.1742427768755423, -0.16361935338311182, -0.16136999006858507, -0.16606259763627124, -0.15592091337120206, -0.16732165526994466, -0.16896689233843348, -0.1615761591882479, -0.18412130247678068, -0.1534746858657262, -0.159682970804842, -0.14299809015650053, -0.14587655138211927, -0.16616972600731295, -0.17821639741476866, -0.19123191305366102, -0.17242788251142344, -0.19979060738858417, -0.20804126299097048, -0.1867882504910768, -0.18747470097382188, -0.18029111221485736, -0.15497925771838425, -0.167182108473406, -0.18647305140001705, -0.2101743793599446, -0.17360597914708975, -0.14658534388123323, -0.16457954282906817, -0.16486170188962262, -0.177056308737565, -0.1742935803190921]",True,0.8000,0.2000,0.4000,0.1000,0.2000,0.0100,2.0000,True
