trial,stimulus,outcome,choice,rt,trace,timeout,w_s,w_n,threshold_a,t,noise_std_dev,dt,max_time
0,go,Hit,1,0.7700,"[0.0, 0.008090997918735765, 0.04418644933349854, 0.07497795779886053, 0.04584189197906052, -0.0013202533249367376, -0.009763480460460196, 0.018785909586986303, 0.030876947144543178, 0.019989034202387842, 0.03412318992895946, 0.03433700419071725, 0.03625216878077046, 0.03770318156628767, 0.06585978400929869, 0.063070797034284, 0.08806071592426654, 0.11933547729233378, 0.13180473893340328, 0.12098999943899397, 0.11834253241323761, 0.08876209365564162, 0.04852531573841575, 0.045562855745275514, 0.06251981951878122, 0.05390557710247378, 0.04804755316959287, 0.03429368819511268, 0.0715843170175029, 0.059193359487467755, 0.08076111827283708, 0.10824899104941406, 0.10797796028894124, 0.14958724278724622, 0.16790249015687847, 0.1933303637120537, 0.186522907262788, 0.19243755900878853, 0.15923647543207567, 0.19960958670040999, 0.18565811125155376, 0.2369847017702678, 0.20634874010217555, 0.2124457343499502, 0.19354580577487218, 0.19172214276690386, 0.2089130027738022, 0.21268985829760442, 0.27315868758874196, 0.2442867364843922, 0.24755669911562836, 0.2720308667883169, 0.2999263853359172, 0.322851822099011, 0.3478359170960965, 0.34977690290806207, 0.35521758764529676, 0.3615206855510078, 0.373934470136712, 0.38909813660763476, 0.4011901363133704, 0.4233485849107596, 0.4489176829888222, 0.4719642133902063, 0.459653161334076, 0.4908203093036823, 0.48693442043146334, 0.5177728868621049]",False,0.8000,1.0000,0.5000,0.1000,0.2000,0.0100,2.0000
1,go,Hit,1,0.8400,"[0.0, -0.012240409852837288, -0.015356594875508315, 0.010640063416148567, 0.041731397445275466, 0.05513375051652789, 0.04133297047244254, 0.08172638535506722, 0.12821549818118955, 0.1408113447350656, 0.16218555908547633, 0.1576080228290947, 0.12993658268780883, 0.14032274492946792, 0.1285857015447485, 0.15000358082811469, 0.15136208275048138, 0.15594495058750077, 0.17110179311496082, 0.19703282342825965, 0.1926235000216138, 0.22726688175920762, 0.2457008116184904, 0.21907495152906048, 0.2120337211657933, 0.24187217405938946, 0.24608262177376053, 0.24430799113603602, 0.24413793656993008, 0.23032212405214617, 0.2166206719672165, 0.24446660620573438, 0.26743310289640504, 0.267516868740406, 0.29010800652793284, 0.27292665126181104, 0.28269871477609254, 0.3157855201148453, 0.3053956904987046, 0.321846515558048, 0.31249897261560694, 0.31786017363340374, 0.3336469758394104, 0.3478282041559469, 0.3461558226955608, 0.35759334616292565, 0.3691380507056829, 0.39380737058961224, 0.37544954362030586, 0.3961043336084772, 0.4267607986903382, 0.39762134531140847, 0.3972853434995176, 0.415918703663146, 0.40266509030300396, 0.3862887486783902, 0.39976083009539565, 0.38751504695804156, 0.40103116958296264, 0.40115206713529716, 0.3898226499499028, 0.37766793197063514, 0.3498750511114884, 0.3680491177436648, 0.38191294421723265, 0.41615017181487096, 0.4360667555311931, 0.4424414567985632, 0.4358472869794887, 0.4429689586460063, 0.4644712008273298, 0.4785372687105448, 0.4948750264588295, 0.4825405485344749, 0.5059088138386637]",False,0.8000,1.0000,0.5000,0.1000,0.2000,0.0100,2.0000
2,go,Hit,1,0.6000,"[0.0, 0.023133555992727997, 0.04279976876704569, 0.04790315005633361, 0.08577895756851854, 0.0936857341214616, 0.08132179875251817, 0.09940032102712734, 0.09890730726358919, 0.1197390890172044, 0.09694882713446801, 0.12551702353931915, 0.13925736670705577, 0.16333661816314599, 0.15436612585243947, 0.1516106745401713, 0.1453596656305639, 0.13466646030416182, 0.1364773016971068, 0.16213206239562364, 0.19088161313004395, 0.21073290088243313, 0.23594589091457815, 0.2781327896953061, 0.26648152728860447, 0.2581338993581696, 0.27718527325248027, 0.26406381375010246, 0.2646158252336054, 0.2867943947604486, 0.2572399697842627, 0.28319099471335946, 0.29673777796192885, 0.3403471311952688, 0.32308632004724014, 0.3225169390979495, 0.34100135088611433, 0.36500326546322864, 0.3802055227230472, 0.4091983009496947, 0.3986630137016065, 0.42428369099941526, 0.439914307723139, 0.40797721160543704, 0.38638816868722725, 0.39300881581185676, 0.4116254401078512, 0.4424562848898589, 0.4601330449413604, 0.4907313749666757, 0.5133209087672289]",False,0.8000,1.0000,0.5000,0.1000,0.2000,0.0100,2.0000
3,go,Hit,1,0.9300,"[0.0, -0.03611103240204884, -0.03036689406576048, -0.0280645080862547, -0.042877266931860475, -0.03359197196450418, -0.009208689605177098, 0.01739514360169837, 0.0474240473140458, 0.057340892806419644, 0.04425609458403283, 0.0819588580028482, 0.0743574471787953, 0.12061664989824106, 0.09173239348313053, 0.10173611776306242, 0.11490637193497975, 0.13170945062306072, 0.17830778805002936, 0.16845549385224334, 0.17304948078497742, 0.18451761233318473, 0.1887444530774437, 0.20874082880614642, 0.230556847980965, 0.2505108887801683, 0.2361482460288365, 0.25579428423411094, 0.2667544292037514, 0.2828372924292215, 0.2786422402885487, 0.2952354034342205, 0.33371441621352804, 0.327858011571864, 0.32314389732894894, 0.3478596721727909, 0.33386452385466325, 0.36001019378407606, 0.37312050656130963, 0.37610821884933876, 0.38090468633129326, 0.38295888142790296, 0.4064346377433287, 0.4181934428621505, 0.43303807938587224, 0.41920009798965724, 0.4257355067018774, 0.3947673626760172, 0.40069441015714874, 0.4119296180787094, 0.36165667003856733, 0.3666936630780461, 0.39332305521144567, 0.36455415110276906, 0.3631099923383947, 0.3532418843335049, 0.35354264140713293, 0.35649052167830425, 0.41418412239068536, 0.41269111283529947, 0.4195027712586159, 0.43198600304893464, 0.43907744861408066, 0.4377072586598544, 0.44010827349590526, 0.4424247707304034, 0.43814311618371354, 0.45206504536284864, 0.4067441265144872, 0.414716072732183, 0.3856694063436055, 0.3961046709373718, 0.41006805316846945, 0.4336756609201334, 0.4396879445228447, 0.4407076137821075, 0.4660271690341501, 0.4572066808976987, 0.44542398684478013, 0.45320192020428485, 0.4774978488921459, 0.48453801684162884, 0.49462661935412083, 0.534332713255589]",False,0.8000,1.0000,0.5000,0.1000,0.2000,0.0100,2.0000
4,go,Hit,1,0.5400,"[0.0, 0.026008954503803187, 0.03432391536021507, 0.031397835261814375, 0.07436321911596566, 0.12315500575757227, 0.17090133635882512, 0.16637163779172043, 0.1888634860314252, 0.2128124397239353, 0.2411172535168087, 0.2522997098551292, 0.24945364034903658, 0.28503907372580994, 0.29778436335779557, 0.2503340828031864, 0.2795548734933577, 0.3124878279611574, 0.3340173930479737, 0.3366954380327236, 0.31062776224313704, 0.3142322645235234, 0.31531674108785707, 0.3324804997092841, 0.33842392343369004, 0.33670711651784574, 0.3065938633460154, 0.3400386749502676, 0.3296739892189895, 0.3038386030920159, 0.29771366480443306, 0.3552276691879639, 0.3904597255283073, 0.39575353076242326, 0.40852179842090114, 0.38223200283952813, 0.4055313170496518, 0.38123164964159184, 0.3977576263964356, 0.4338998538732781, 0.4510493778572631, 0.46974983973184564, 0.4875216521952745, 0.4992347412860171, 0.5283304576977681]",False,0.8000,1.0000,0.5000,0.1000,0.2000,0.0100,2.0000
5,go,Hit,1,0.8000,"[0.0, 0.02228007711321811, 0.048356227380699196, 0.06740730569773798, 0.023359125086772646, 0.015945286550592484, 0.039890082772131186, 0.03462070952489564, 0.034247284821244964, 0.043237746098556906, 0.05591387459868736, 0.05628766840798775, 0.05293131512505707, 0.03665438327941964, 0.057324835980115674, 0.06096403542168275, 0.1035340718412727, 0.10236816964964289, 0.11928030566190351, 0.11015564264630451, 0.14251797622890544, 0.10704484342571544, 0.10383425495966714, 0.09974882218271833, 0.12424915190595835, 0.12758633523887178, 0.14415637529738823, 0.12585859739532046, 0.10874285364353983, 0.1121286418519773, 0.09498387848522208, 0.13403687703781045, 0.15200802918566708, 0.15852809910585405, 0.17244359268604098, 0.18644176022669026, 0.19849029836739202, 0.1901432652451268, 0.21871253406597715, 0.23272665139875257, 0.2679962405083885, 0.2724592851869887, 0.2556503563268569, 0.2719389301181299, 0.26876549518929244, 0.28449299385683147, 0.3196070724488263, 0.33297760414844607, 0.3284165343056814, 0.3554036011292907, 0.376897414814516, 0.3842404874275082, 0.37652916516241586, 0.3355080236142944, 0.3325656556107091, 0.35724810523724304, 0.3553995384200619, 0.3452314170864827, 0.36649337622429434, 0.37247143458485305, 0.3882840583909341, 0.41836376651565993, 0.41441701443726153, 0.4170527333651065, 0.44095691319202995, 0.46828710933806506, 0.47871671059026943, 0.44698506512376135, 0.45794226471006044, 0.4968239702956321, 0.5111353056317314]",False,0.8000,1.0000,0.5000,0.1000,0.2000,0.0100,2.0000
6,go,Hit,1,0.8500,"[0.0, 0.0038436536377831794, 0.022101678555837192, -0.004167581800056611, -0.00019346124299095616, -0.009486139478182394, 0.011219828479374201, 0.005024732966757376, 0.04448662370976529, 0.0019984808404354404, -0.04225878799653454, -0.05789178860814845, -0.021537504515816507, -0.03832986025777341, -0.020669548008885093, -0.01845234624934837, -0.04428254487285732, -0.04424376592387005, -0.024144474511708855, -0.009726747687400337, 0.019988126741318932, 0.01049303813885338, 0.06406428923743156, 0.09558341612562415, 0.07251913394928168, 0.06297205884585662, 0.1007740493743633, 0.12826859213365419, 0.11897408646563412, 0.08601778307718672, 0.08754364111390361, 0.09282804896796051, 0.08796758917706442, 0.1085116161679989, 0.13210919260056095, 0.1568985126323775, 0.18307054556112973, 0.18173131108097396, 0.16862953225709268, 0.1522135855462852, 0.15849725187140842, 0.13998744010205266, 0.1664911573022635, 0.17592625593732542, 0.19423435901579456, 0.209130972501491, 0.22436902480582316, 0.19585015896530364, 0.1955268603830786, 0.17661236578223966, 0.17935955897661462, 0.173050299631883, 0.19460443777861566, 0.25080108918657756, 0.2659711968595614, 0.2808976979047828, 0.29515483458321445, 0.27202455065636844, 0.2890805982940542, 0.30530377301876743, 0.34509230300991345, 0.357416990028282, 0.3601064427545378, 0.3708886446860641, 0.39544619672895587, 0.3748430720654513, 0.3440124099666823, 0.3547921668144967, 0.3439283648484821, 0.35772379155608947, 0.4018766099041202, 0.42500824120103464, 0.4306282380310199, 0.42740877577206976, 0.47499022553702397, 0.5097591180996405]",False,0.8000,1.0000,0.5000,0.1000,0.2000,0.0100,2.0000
7,go,Hit,1,0.6200,"[0.0, 0.002112240812464367, -0.006484073322895978, -0.006425919386222555, 0.013404933130948777, 0.020249648875515776, 0.05747205703063327, 0.07489031040689473, 0.11447133235894558, 0.1287954338660697, 0.1312537085878803, 0.1474457207567819, 0.19317258417876546, 0.1884410116826979, 0.1552136656840912, 0.13055042246480672, 0.13862042779849323, 0.16641429370793098, 0.14877354440010898, 0.1626953792028752, 0.1900408241378054, 0.2300846733131514, 0.21811571750982958, 0.27145393906330706, 0.27995793812189856, 0.2852970680292887, 0.29704074950192, 0.3098679438655747, 0.2834805445149686, 0.27416997170322893, 0.2971153116690286, 0.31267177856438666, 0.29818301094825217, 0.3027759380809072, 0.3076200430504709, 0.33306717456942303, 0.360470221884176, 0.3567533190070854, 0.3664354760630042, 0.39139372965669916, 0.38614546782648296, 0.4138329610674342, 0.4178476999780828, 0.44460245362646167, 0.4437613782312513, 0.45717619723413067, 0.47750016984528926, 0.4793210814744645, 0.4851757848797448, 0.49611033534845, 0.49770444338781084, 0.4978292336400509, 0.5265014086553881]",False,0.8000,1.0000,0.5000,0.1000,0.2000,0.0100,2.0000
8,nogo,Correct Rejection,0,2.0000,"[0.0, -0.009048215614833068, -0.01347013321988063, -0.029625608086302435, -0.02516973497819626, -0.029180532978657362, -0.04465028593237809, -0.05574479344072573, -0.05227323667106316, -0.056477842913737794, -0.08248445176919678, -0.09864179181052807, -0.07948067852186923, -0.07945447111410872, -0.08835146002943693, -0.10242007260026148, -0.09734731327085308, -0.1394907367435894, -0.1550403792947287, -0.17171159431149527, -0.15311783204846716, -0.16280593005532232, -0.16562648021136722, -0.15301919121246316, -0.1669509903288097, -0.17561364703272586, -0.14420269199608776, -0.14231904852045443, -0.16542965371599802, -0.16931905664089128, -0.12344907802830128, -0.11695556718914873, -0.10145356386999717, -0.10274426619946976, -0.11636624504192337, -0.1313099703022328, -0.13003933245340377, -0.15840502834389414, -0.1585143549587361, -0.17147065463035424, -0.23232159901191932, -0.254313632235071, -0.26987046548793936, -0.23385019663287737, -0.23050414116205678, -0.2330957818884053, -0.2263467527769448, -0.26707414479377867, -0.27249203332948757, -0.270393659918392, -0.2949686597213325, -0.29526130763430475, -0.27577948521826506, -0.27388044180410726, -0.3102344923022175, -0.3094032684583166, -0.35116964083683155, -0.35216732893241154, -0.3819800866063451, -0.3867368932121397, -0.3882053860572393, -0.38940556429913015, -0.3781591043410747, -0.36938730993941576, -0.38521182826885086, -0.4089223259002866, -0.45939822082387854, -0.46188215672870137, -0.4447856834159392, -0.46641296267616594, -0.4748688742710648, -0.460605879484876, -0.4506847361920402, -0.4191288620297968, -0.43082070073422757, -0.4254953394139614, -0.41268665998803444, -0.3757960698553549, -0.4136000715141705, -0.4148544742957276, -0.3943232451232244, -0.4252481428602613, -0.40224210320715736, -0.38807721275382456, -0.3816881694182383, -0.4123033264309405, -0.41847715300886895, -0.44371274754619344, -0.45321956164869126, -0.4719640215686336, -0.48642684147569315, -0.5216068446400307, -0.5302807317478005, -0.521398846976259, -0.5143885575199262, -0.5199567979073133, -0.5485593816891241, -0.5564218845361345, -0.5627534781183385, -0.5961844505886909, -0.6043927638624715, -0.6098510251384626, -0.6164918491662819, -0.6482554869822303, -0.6787200831755196, -0.6923039193637807, -0.7282206172741486, -0.7448609607660145, -0.7226814233124402, -0.7304317265862184, -0.7280132569876234, -0.7381881490435196, -0.7526500312137266, -0.7390507393790026, -0.7466255669312809, -0.7720164693813901, -0.7868048575385094, -0.7882753015885903, -0.7887237013560303, -0.8110571284118788, -0.8279287959134657, -0.8042503774606197, -0.8040903580295229, -0.849935921515115, -0.8232938148733879, -0.8630295496811254, -0.863817461847971, -0.8860077267003709, -0.9110701655224566, -0.9525889585667703, -0.9626971021083252, -0.9945747187442887, -1.0282717111885826, -1.0442934400963022, -1.0329774237558962, -1.013135965494813, -1.01440698535687, -0.99943935744119, -1.006353735171887, -1.024400292698568, -1.0245844386921301, -1.057284143985914, -1.0340207434337167, -1.051680904074662, -1.0980029422238968, -1.07897543720919, -1.0956884767359654, -1.1096937859261196, -1.125622563210184, -1.1610403343703075, -1.1537112965415097, -1.1695776590599294, -1.1794972668085362, -1.212932120765883, -1.2334001693462873, -1.238845348938871, -1.2606437163586461, -1.2827538495363098, -1.2783499828647114, -1.2823090090042013, -1.2719645399503263, -1.2765569622815258, -1.281771648939118, -1.2726520404257151, -1.2527088043316723, -1.258018064465837, -1.2820840174230435, -1.3032572001358929, -1.298954299794118, -1.3111795658825005, -1.3525755919932123, -1.3689157568594186, -1.3652092299302792, -1.390578131945309, -1.3944984580612445, -1.4138148441930303, -1.402491918631224, -1.4067689399516834, -1.393908348228885, -1.4099208587063652, -1.4292732176719236, -1.4507442985994816, -1.4741513181938668, -1.461505818740933, -1.4900628389037003, -1.4902210740707087, -1.4943234148198967, -1.5017992240442535, -1.5053897228388096, -1.5211178872439655, -1.502483540099226]",True,0.8000,1.0000,0.5000,0.1000,0.2000,0.0100,2.0000
9,go,Hit,1,0.8700,"[0.0, 0.009706479342298117, -0.015795326187731072, -0.014523626653641979, -0.034867782172376134, -0.0005368404075949754, -0.015612077557522547, -0.007744398686746451, 0.040776047804603276, 0.06511120346010595, 0.05860892840255143, 0.0372387901458262, 0.030313699434793537, 0.013302657173695304, 0.047034100925775375, 0.02325513576660318, 0.031203113225785076, 0.032103987030987234, 0.018586223116023443, -0.016971651065135953, 0.003584167231126454, -0.0010855914384453168, -0.012552101274526764, -0.02141545882510136, -0.0026783239765843063, -0.02769312408747904, -0.035346693480736255, -0.042962860699176736, -0.03690079583847674, -0.057647494209445774, -0.07071140978838646, -0.06143811782223614, -0.0477922487228735, -0.029570997160919897, -0.040478037611254396, -0.031003748771842737, 0.009378730161120997, 0.025980019050622173, 0.035996990407701344, 0.058607911960414635, 0.06257550650564946, 0.06286675444192208, 0.10066741430639217, 0.10523415887267949, 0.11031339718854449, 0.09751230382582715, 0.12773255633580027, 0.13564270479736815, 0.19884049162498213, 0.1961334924643947, 0.1797681364267889, 0.19563235574299292, 0.18700155360425974, 0.19699001682964337, 0.21089632797347047, 0.24943205807574975, 0.24277902635852422, 0.27775812425262003, 0.29810823589333646, 0.3022084158437428, 0.28190565613233587, 0.26744674359687265, 0.26306962999778044, 0.29685242852780647, 0.34843160102738635, 0.3476409119949844, 0.3713528296832183, 0.34773090032807613, 0.3488334580406281, 0.36780788365189526, 0.40748638953696137, 0.407276316412319, 0.39242508994632713, 0.41971797594887283, 0.44461466213956863, 0.48563918458516625, 0.48889801783034637, 0.5000980106236016]",False,0.8000,1.0000,0.5000,0.1000,0.2000,0.0100,2.0000
10,go,Hit,1,1.0400,"[0.0, 0.02095596658417105, 0.025731793210126322, 0.05657338907516659, 0.06172264145646671, 0.06509897031408368, 0.0655540161327499, 0.06714188815735579, 0.06525240120353652, 0.08638764877072427, 0.09445994621522398, 0.1236362109862611, 0.1189294282643053, 0.09040954345137987, 0.10707163202474687, 0.09164580788307579, 0.07924496941312795, 0.05116310262103515, 0.023380410627829196, -0.013668613027626203, -0.00447556438886032, -0.029974364839536458, -0.026008117674612842, -0.00861423785030533, 0.02495340984969769, 0.025028933211385516, 0.045734955544285576, 0.029658630054471904, 0.037119191624760906, 0.046225213558367326, 0.049669588888640606, 0.02710835174897384, 0.021772304527514122, 0.026154685183265546, 0.03129228155974098, 0.059730910070571304, 0.04076383780510017, 0.03647373862864539, 0.04365194836628983, 0.037173624553987726, 0.015529859448340864, 0.014299636828502596, 0.03275473660467729, 0.04117399221929756, 0.06958591918951917, 0.06920796804630736, 0.08148143047554753, 0.08643743937603478, 0.09685402987820856, 0.10598727951770116, 0.13530109533770812, 0.1195643862356069, 0.12353177586275017, 0.1721770737491854, 0.18385424316332027, 0.19123748389002343, 0.1572282941068307, 0.17480473651869866, 0.1756905724531132, 0.1808922706116446, 0.18459739510615544, 0.20656903374163788, 0.2190095079222758, 0.198609247650396, 0.1752982936612143, 0.20073148960677722, 0.17828068097178867, 0.19627172999024187, 0.20206062374456407, 0.26248698075197346, 0.2878181340062699, 0.29672437871468543, 0.2926205350299277, 0.28514522058385, 0.2688212945887222, 0.25657623497422105, 0.28831219740464653, 0.3226549953295355, 0.32261661706899697, 0.33634278651094474, 0.34262952388736034, 0.3489020193652322, 0.3662864557180381, 0.3724721894876935, 0.35041031255603533, 0.3896212344280088, 0.41640589855986626, 0.4055245384719926, 0.4341515379927979, 0.45899284776440197, 0.4351000478380123, 0.45416255557692004, 0.45481517830755525, 0.4855155551454092, 0.5142415050113078]",False,0.8000,1.0000,0.5000,0.1000,0.2000,0.0100,2.0000
11,go,Hit,1,1.0900,"[0.0, 0.009223974784397812, 0.037587939249139495, 0.045448006520488096, 0.04896729307592408, 0.02258029006798841, -0.01331827125198888, -0.013164981074349099, -0.023036021544951144, -0.022614785688050594, -0.060163131314866294, -0.05291636162578464, -0.07172163461878624, -0.0769038155762925, -0.0688809254732792, -0.058062366634413665, -0.062127330925175764, -0.09810835951690103, -0.1164687150662469, -0.08833259634748823, -0.07661899179207254, -0.08238038225501407, -0.07758346705172973, -0.10361009611081265, -0.09785144485320534, -0.0842781746988965, -0.06097443621953143, -0.030635962471452956, -0.03153343156977392, -0.04839975965231698, -0.03732727432387725, -0.027219635355906463, -0.03224701203004835, -0.013103974333122256, 0.0020257366408537036, 0.021773568893395906, 0.02724028432388125, 0.05189171300654408, 0.05695415501579807, 0.05793167509850827, 0.058678780235014036, 0.06291872619829805, 0.10164255649943381, 0.13268760912851238, 0.10831916768648564, 0.10329392767264506, 0.10391953124744473, 0.09740566480420598, 0.12791453833111666, 0.12800020535614384, 0.12929477250594631, 0.10432215578254556, 0.11556382388380601, 0.14750168392914426, 0.16781191040446175, 0.15062318299722485, 0.1463998573509796, 0.1705750699615614, 0.20608768437463815, 0.20901266136222613, 0.2153589837648069, 0.2228864952273125, 0.2545138147022152, 0.26487018949679075, 0.24479943732439655, 0.2320011431358366, 0.2420484250025693, 0.19245955330421308, 0.19604258866402596, 0.2371421978795802, 0.23102691655872706, 0.2420552822201703, 0.23778230540314463, 0.2173132223026677, 0.19036821902278975, 0.22419925707512467, 0.24825467822580577, 0.28713479580268925, 0.30184202631685175, 0.3352630982047021, 0.3377634549241333, 0.36607804190701687, 0.3605634283207752, 0.3862367982814053, 0.4059383042843843, 0.41919145009507347, 0.4387528078607414, 0.4304972502786616, 0.395970069945067, 0.4009650170674273, 0.4011096472128246, 0.4227866854183213, 0.44057266610541446, 0.4459309710972176, 0.4557973833429054, 0.4809216739556038, 0.47569389134747764, 0.47341833015221524, 0.49073284506417764, 0.5081961799580695]",False,0.8000,1.0000,0.5000,0.1000,0.2000,0.0100,2.0000
12,go,Hit,1,0.8600,"[0.0, 0.005232465127675305, -0.01766706130738848, -0.012851705901963075, -0.023252554798967182, -0.017959520458168877, -0.0002222230245622972, -0.0031624337071917315, 0.026499813356571787, 0.04885042368879326, 0.06152855785397621, 0.0779941427147596, 0.08975889383273483, 0.11436026819354467, 0.11165819895600754, 0.12857594581407397, 0.12204573452130178, 0.13280522861671087, 0.1493361639632149, 0.1681438225022252, 0.16297461347102704, 0.15630245868845744, 0.15205545644146964, 0.14382098506984686, 0.11024478302045804, 0.11225559470553363, 0.10004126529898892, 0.08913846913405696, 0.09626323903849764, 0.13032952532710557, 0.13421432136215358, 0.12753170629058852, 0.1354882550249174, 0.16598687567774853, 0.165236134690598, 0.18236283210452012, 0.20410341315502348, 0.20926530252774234, 0.21716940756240216, 0.22979396360061835, 0.19452118136038163, 0.21218025071364102, 0.21429435634430052, 0.2667915143872053, 0.2665499913995055, 0.2712724710974697, 0.3075124059864477, 0.29219559649295684, 0.2681315670036578, 0.2937907367974195, 0.31436171848235445, 0.3221410723324258, 0.29285017607504976, 0.3042286569525865, 0.33138906851458255, 0.35953991684922443, 0.3548032915899274, 0.3747863304819659, 0.38813693253199627, 0.35554580541165687, 0.30655686691073764, 0.3325030048626323, 0.31967524932916036, 0.35073776328348666, 0.3607379254206269, 0.3737473179855258, 0.3980416616287163, 0.3798600470331277, 0.39081308107970736, 0.38416719557439677, 0.37739836847586644, 0.3962482104140529, 0.39996239501223263, 0.43197175289899065, 0.44694977968508626, 0.4546482213591532, 0.5182041624026635]",False,0.8000,1.0000,0.5000,0.1000,0.2000,0.0100,2.0000
13,go,Hit,1,0.7700,"[0.0, 0.01909545072457916, 0.0096454296292319, 0.03624832256476909, 0.05476598773147738, 0.03759486578288931, 0.005006294930227723, 0.018600196596062237, 0.03534335207060822, 0.05066622256883202, 0.034037752639824975, 0.04265258204952619, 0.04482736436327023, 0.0793659420432289, 0.10030913564937316, 0.1523172369042316, 0.15890932339511118, 0.15567769062125225, 0.15035114401498662, 0.17241887837144387, 0.19131908171932427, 0.2090784235843676, 0.1750726047928155, 0.17729939244154092, 0.17563734558905875, 0.17656299233095157, 0.1793976088162543, 0.17305976102445664, 0.1558799884065931, 0.18409709776252464, 0.22162422477111876, 0.22471453547904877, 0.22084331929236137, 0.22550152327033307, 0.2273567046296717, 0.24589620717030686, 0.24177089203192703, 0.27368544138543016, 0.30073187473197593, 0.26515785765857586, 0.2650635497816094, 0.28292829503207073, 0.28665869964158497, 0.2822444823973333, 0.2687818142067354, 0.26895209878171583, 0.2432705833763109, 0.277726244902774, 0.3136706592764226, 0.34288861568439194, 0.35474289251840085, 0.3717335327485217, 0.3997443221934282, 0.3921186401256202, 0.42996859168387, 0.4315477830827246, 0.4173754606445652, 0.4249654997768625, 0.4271794767574247, 0.41011182421099535, 0.3912276375150093, 0.408992873574702, 0.4365744172600097, 0.41851680431891963, 0.42650618811784585, 0.464588613214517, 0.48757716937848794, 0.5139888376710523]",False,0.8000,1.0000,0.5000,0.1000,0.2000,0.0100,2.0000
14,go,Hit,1,0.5800,"[0.0, 0.04649031424656008, 0.07484502535335376, 0.1000131088143234, 0.13079539031641355, 0.18617934675257367, 0.18682832507385022, 0.2174958044522476, 0.2412233737378759, 0.27629593546427733, 0.23714934105564067, 0.23338245066121716, 0.24932969172754943, 0.22275659380213467, 0.2663436996608833, 0.2968079032050856, 0.33400581694193365, 0.3210556453146922, 0.34441505980809867, 0.34434870631895503, 0.36278074785590725, 0.3853451368791365, 0.37233968820400526, 0.3828600838094292, 0.39083997642382484, 0.41210989941006365, 0.443358036277975, 0.45944002673067724, 0.46018984785676365, 0.45536411384638403, 0.4677915974202917, 0.45657750809427794, 0.46478939469400843, 0.45188827993090924, 0.4634797394877857, 0.46077229383293233, 0.45239143268688264, 0.46207120443578253, 0.47421463526280244, 0.4703952701494847, 0.43508278323270894, 0.4484335953795444, 0.4660066884936141, 0.44136207809151834, 0.47030566761174514, 0.48854278590644923, 0.4883149094825913, 0.48635495848305477, 0.5011646309741477]",False,0.8000,1.0000,0.5000,0.1000,0.2000,0.0100,2.0000
15,go,Hit,1,0.6700,"[0.0, 0.01010745500390857, 0.004723980057624441, -0.013717020859876002, -0.0011636388826600317, 0.012401766955197268, 0.026864684152325, 0.017167764359570487, 0.021442406176131034, 0.011477142028165344, 0.01381719171989831, 0.056545053025832626, 0.06459982699917241, 0.08907764548708083, 0.10586896165100779, 0.09745370737265685, 0.06718696914590352, 0.052281233565665566, 0.04194944304781652, 0.05842360964201014, 0.07557511388994051, 0.08942124237747073, 0.06065534827797878, 0.060252550966569965, 0.1075144445527074, 0.1442796995840499, 0.12454388884255263, 0.12937573256857118, 0.13553652176866438, 0.18088943523837092, 0.21246254659747027, 0.1993538920260888, 0.21553664500431782, 0.24082625110262781, 0.2650400067987641, 0.21178094749294768, 0.22250657589296144, 0.281708308857963, 0.2895529023708641, 0.288547446294474, 0.2817576795258436, 0.3237947469547403, 0.34117874826174327, 0.37437519316936946, 0.40712500544136043, 0.4272601128729175, 0.4329064680775134, 0.426163811764436, 0.42134410177668546, 0.4288220170595539, 0.4232604040339468, 0.42654402884676257, 0.4443479938521119, 0.45750064510045235, 0.4520813393079815, 0.4966760964009273, 0.4947162397654871, 0.5184877112410821]",False,0.8000,1.0000,0.5000,0.1000,0.2000,0.0100,2.0000
16,go,Hit,1,0.8000,"[0.0, 0.019656562462459226, 0.014069532859477926, 0.028216189608853075, 0.034144116009311366, 0.0016099582761462464, 0.03248745710040539, 0.05043237355804259, 0.07752953523527796, 0.07530503879887601, 0.09658454660480312, 0.07750281857228711, 0.0942327895120737, 0.06522088387411484, 0.047403473059153156, 0.057005708066652096, 0.05055480356227639, 0.10671673250289118, 0.10208524751267094, 0.08696650170984777, 0.11913202566443828, 0.15210957115891827, 0.1529715414841508, 0.16488716554425803, 0.15750867185681341, 0.1694144460846459, 0.20215434217590927, 0.2115683308458552, 0.23907785776844406, 0.25830818013195955, 0.2227008030107619, 0.23132827530360595, 0.22959471695815215, 0.19595203348071183, 0.202844442464469, 0.18773806045177746, 0.18310444026960718, 0.17788073256252002, 0.18504143447182905, 0.20564238121284184, 0.20606437405327852, 0.24115061367097435, 0.23332940205305377, 0.23899564579338642, 0.26222051203678787, 0.2689049466518631, 0.29248047689622997, 0.30107982063495514, 0.31276821294966867, 0.27665374818495664, 0.2738757792501614, 0.25018687687499386, 0.25846681397768007, 0.2968787656330926, 0.2831763600352002, 0.31010438342748947, 0.3418509405248959, 0.3556934822740562, 0.38500784089212464, 0.3825024227829323, 0.39652666879605775, 0.3963373042675878, 0.42164213475340695, 0.41492393393036975, 0.4566269665526635, 0.4427426134539524, 0.4697880297376674, 0.45892276165414286, 0.46015700880333577, 0.4737995612819103, 0.5187908781460085]",False,0.8000,1.0000,0.5000,0.1000,0.2000,0.0100,2.0000
17,go,Hit,1,0.8700,"[0.0, -0.0006825198548619724, 0.003130547753626944, 0.020289249287466345, 0.048691731146319035, 0.06014636306141426, 0.07404080420741681, 0.08833525943812967, 0.12547957830016573, 0.13390609343208149, 0.1284536048433858, 0.13009412647286464, 0.11781960438773222, 0.10612103763438926, 0.11727443695849957, 0.13011826436271512, 0.12463377241271736, 0.16183190423844668, 0.15309486746309142, 0.16409896080709413, 0.19739881852303143, 0.1824354032261145, 0.1786788059295269, 0.1637496758974076, 0.16495637991272735, 0.19675427172174598, 0.1655053534434621, 0.17501833224500746, 0.17010069179620232, 0.15210593868735825, 0.14458592145050317, 0.15257399002106337, 0.16517111048972455, 0.17057161371374918, 0.19325007341163514, 0.18318498566980704, 0.1733404835181263, 0.1782122247951759, 0.20912154312479428, 0.23305876964996877, 0.27119806436660304, 0.3233870137707212, 0.33703399530708583, 0.3317784332445958, 0.35290588335515205, 0.3459093492300648, 0.3622673036250068, 0.3757495320342914, 0.39287146565333525, 0.3924466246784756, 0.4194411585445873, 0.43100252806552763, 0.4262051839541312, 0.4448363459966918, 0.44571872398593715, 0.43145029333416096, 0.42018816228080513, 0.4294339270222088, 0.42880039887454, 0.4417471721747579, 0.41325405272043736, 0.4252180398796675, 0.4497177062469922, 0.4648266091514296, 0.45811983762760283, 0.4704142715825149, 0.46755415496233094, 0.4621436010903335, 0.4901607018889479, 0.48541172837735225, 0.44561666118622584, 0.48114610603327146, 0.49083193710753353, 0.4708961426101052, 0.4629601941237108, 0.4659530745968345, 0.4997340911735271, 0.5220428141568679]",False,0.8000,1.0000,0.5000,0.1000,0.2000,0.0100,2.0000
18,nogo,Correct Rejection,0,2.0000,"[0.0, -0.004713487003846681, -0.026018997702648594, -0.07612230534597002, -0.06480287338093361, -0.07043091051182708, -0.06474102344464525, -0.08795785727412553, -0.06592249548738059, -0.06079663410609461, -0.08188809766771193, -0.08560780270828422, -0.11681881103978851, -0.12032604925441684, -0.11090163841285028, -0.13264827689993042, -0.144866245285175, -0.16154876427797812, -0.15984173252328007, -0.1960906596480504, -0.24316154294921694, -0.2504330942186739, -0.2366441801764088, -0.24312858667420695, -0.24166488370497405, -0.30006919483966554, -0.32839474674736907, -0.35897125707389654, -0.37334082487975234, -0.4163609183129004, -0.3998667059563473, -0.44138017164651466, -0.42166552794282036, -0.4091620722993487, -0.41145554397562883, -0.41566771518601686, -0.43740053713797483, -0.43512635057431953, -0.46062275194563557, -0.4768234077964839, -0.5100694458574906, -0.5212662224824304, -0.5377323939911673, -0.5625612658039614, -0.6064029657663833, -0.5896555954403241, -0.6064912017977845, -0.6039018383221031, -0.6217292356208513, -0.6292373162374554, -0.657684951588376, -0.69364892208526, -0.7099055095703383, -0.6911691585178612, -0.7204881096801388, -0.7033655136929974, -0.6969428660539378, -0.7189569470290352, -0.7095003528877759, -0.7395714889002512, -0.7353279930080561, -0.712297787171937, -0.7679955884274637, -0.7519334399633771, -0.7295275442819096, -0.6860387397541439, -0.6961591103715341, -0.7113802894077883, -0.7051393456531081, -0.7229299600072779, -0.7014976190702984, -0.7055080749977218, -0.7293944931985452, -0.7581606799065955, -0.75155093776614, -0.7507110405498754, -0.7537697942687412, -0.7268160402402501, -0.7273303512949508, -0.7543544459815841, -0.7277518822674488, -0.7163488773885425, -0.7269364290521266, -0.7535669767631334, -0.7645226498291879, -0.7872715899761186, -0.805562743497138, -0.8202984339752827, -0.8084853907894132, -0.8337328967293559, -0.8263627865574139, -0.845416399610592, -0.8468774413068355, -0.8508496744427483, -0.8718918433677352, -0.8997652490833251, -0.9301796549908159, -0.975257063486204, -0.9797404733704405, -0.9864495280250647, -1.004335289227824, -0.9706640780715295, -0.9898445141575837, -0.993555840280608, -0.9981506098837126, -1.0406810981624082, -1.0593393997352218, -1.092288561335357, -1.0981523319634554, -1.122293548709509, -1.1481126465660085, -1.1752312388825612, -1.1731050498226196, -1.1703007154258471, -1.1708977542413506, -1.2107950767028506, -1.2273381343291587, -1.2176714319596893, -1.2412944578363259, -1.2478948535198373, -1.2649469822998012, -1.2777251979957234, -1.277554538277283, -1.295281389817898, -1.3191022479496344, -1.3227165892009665, -1.3338551670418455, -1.3509444694779609, -1.3505380216318337, -1.3249892850689897, -1.3037611050690947, -1.3231948041062822, -1.335841164717896, -1.3323897450302848, -1.3450192864650174, -1.3489614464310855, -1.3651227520108842, -1.3636798273311883, -1.37701366304154, -1.3900648734342518, -1.401215230226055, -1.401325038133508, -1.393992491381264, -1.390271655156437, -1.4181979943933551, -1.4213517790281307, -1.4579443877919251, -1.496109565709935, -1.5273307485247616, -1.5270962115420244, -1.5414243996783399, -1.505263364164264, -1.503962078507819, -1.4777568561893637, -1.510930738165875, -1.528014964183982, -1.5008109982671234, -1.5303290332322266, -1.585723147317947, -1.5873265274201482, -1.6247303895409075, -1.6500187668112467, -1.647737974516029, -1.6491347131291736, -1.6592716436547013, -1.6380298708728527, -1.6812678686733822, -1.702292084505492, -1.7146495187594921, -1.7413380592790817, -1.756495752915432, -1.7850206225686391, -1.8138029108611582, -1.838681002513248, -1.8407408740102005, -1.86379116797878, -1.861240273212475, -1.8819661728480153, -1.890142825616546, -1.895766929271671, -1.912691672780717, -1.8949593461339604, -1.910573291769876, -1.9390047628904736, -1.9308746124116583, -1.9346262175078683, -1.920534304226146, -1.9372587924165316, -1.9272146576364584, -1.9462880188560636, -1.956914326588551]",True,0.8000,1.0000,0.5000,0.1000,0.2000,0.0100,2.0000
19,go,Hit,1,0.9600,"[0.0, 0.023605088605593464, 0.0005705128046287096, -0.01897334640048636, -0.01830191509799376, -0.016022179561688193, -0.03274737913999796, -0.013387541432667523, -0.029861838817294095, 0.0070717246379896695, 0.004624307681531124, -0.013604559597368525, -0.016239875190376583, 0.026152334609330197, 0.03170562261035, 0.03981663003464349, 0.03750817779230844, 0.02796476864758131, 0.024478158499410943, -0.010069630917926349, 0.005590657719633286, 0.035558450988883814, 0.07369687668620395, 0.0587292797965811, 0.11284983256144049, 0.11590166939569452, 0.1397883397389725, 0.15212460819636323, 0.16966787408620726, 0.17221405090834807, 0.16366661900149448, 0.177173426247674, 0.1957435104779156, 0.23888269946213306, 0.23846107936180747, 0.24958182721490513, 0.2311594507619124, 0.23407145854174477, 0.24151947277366417, 0.22741845037112943, 0.2273981513088093, 0.23549905154068163, 0.24489335973733736, 0.2365021350095012, 0.22378038395133387, 0.22343300882462333, 0.22315137233243468, 0.21826400096780046, 0.20862783005150168, 0.21511405497143002, 0.21005616398053467, 0.23919247528900847, 0.22850210246273522, 0.23855537824765577, 0.21261482211687108, 0.2523301969760088, 0.25447134664079535, 0.23546731289379483, 0.23863651169701008, 0.24540469914092344, 0.24161182036866402, 0.24322643307514016, 0.2229932755868642, 0.25732875900384117, 0.23126209842742645, 0.2638673131304156, 0.27842561069160343, 0.27550838633764485, 0.2836174382028811, 0.2860539557564199, 0.3083592990956646, 0.3329347768907052, 0.3542297720742469, 0.30368369685510516, 0.33206210320563256, 0.32101913651027936, 0.29520513096289014, 0.31731276733321045, 0.3525808597719483, 0.3408761799030669, 0.37002425249853704, 0.42174732909133344, 0.41482635267397694, 0.4434842158172169, 0.4652080721262938, 0.49492871695363283, 0.5009861303550912]",False,0.8000,1.0000,0.5000,0.1000,0.2000,0.0100,2.0000
20,go,Hit,1,0.8700,"[0.0, -0.017216232721754057, -0.021709132549103824, -0.050598212789320654, -0.08368324584463394, -0.054712946048699626, -0.01637745057804356, -0.05958569284676539, -0.06428440871570193, -0.06119751069028064, -0.05841770590036622, -0.07330803674891251, -0.051993341403114894, -0.04618722582427752, -0.05900824443611033, -0.019865156599372408, -0.011111664445259573, -0.035734727322547115, -0.018482801687525294, -0.0479599837416811, -0.007033933739633076, 0.006529204619442723, -0.014782275543896831, -0.04007999277590216, -0.02790875457787956, -0.05700545987154178, -0.048327149859109984, -0.028573823113993632, -0.0017944865558902102, 0.027747266833867048, 0.035937492170143644, 0.057842030054146815, 0.054484770668384655, 0.04306518334524606, 0.051000091375340874, 0.04923928310059544, 0.055780598015055874, 0.053296717599855714, 0.05819354632463943, 0.07429631234252612, 0.06897839541173054, 0.09609733891537688, 0.05945480863953626, 0.06819909343757048, 0.028583521949973982, 0.03319691520960789, 0.0839150047239497, 0.10798077681584085, 0.1410248598389536, 0.1733694594694039, 0.16164878924119483, 0.19286593134575633, 0.2084687250143343, 0.21851019484277243, 0.19891882177496337, 0.19762506218971737, 0.2156916317188165, 0.2051188878406727, 0.216808408963562, 0.20378294437315844, 0.17803547662134261, 0.19458431665183584, 0.21016141226531956, 0.22023322282174834, 0.21137713953737505, 0.23760246008678373, 0.28789904994105203, 0.295019876559791, 0.33065734950322334, 0.2972205099801245, 0.31899085867120835, 0.35251303409773227, 0.40080509822864785, 0.44631608724437366, 0.49340900094859724, 0.4896504332387839, 0.48542279490662615, 0.502440962738635]",False,0.8000,1.0000,0.5000,0.1000,0.2000,0.0100,2.0000
21,go,Hit,1,0.7900,"[0.0, -0.009108328985791246, 0.02875874332429404, 0.051384192277191945, 0.034762279569534635, 0.01667561368228643, 0.0479095017913762, 0.04950559050593333, 0.07241437192485886, 0.08118843081278039, 0.08166001703373633, 0.09025979524689448, 0.08458074098729967, 0.09560956915658662, 0.08478693755496151, 0.1072068225434111, 0.1320216094365267, 0.13246133129240856, 0.14463336898096074, 0.18013045136498418, 0.1843686423002499, 0.19009621465991922, 0.1897023775512603, 0.1825235605619183, 0.19317847959386333, 0.17305828343803564, 0.230190113761103, 0.24015036766384545, 0.2331108508188711, 0.2706935101747349, 0.3224507895655021, 0.3386326002932911, 0.3199159399999564, 0.3035051889198929, 0.2861461715470154, 0.29818406173112394, 0.2925189503255437, 0.3325119641928989, 0.3209453974616402, 0.31137700196293017, 0.27289451966493083, 0.2755391112111728, 0.2801963349069926, 0.2881354198880384, 0.2854933360852504, 0.30869751975062476, 0.3133132961502997, 0.34939668983246347, 0.33282183862881426, 0.33341770705383605, 0.34448026507817764, 0.35231283123185314, 0.3796773375444285, 0.3846585390157346, 0.3824324213842897, 0.3503723732952119, 0.3494201030645001, 0.3654344160698555, 0.3859475939101548, 0.4030049393499236, 0.4345412661861698, 0.4399552170256658, 0.4765852377999063, 0.4358718578200721, 0.4425784122216921, 0.4499396025258955, 0.4614389445106813, 0.4816648306943597, 0.4768203727474077, 0.504860195903598]",False,0.8000,1.0000,0.5000,0.1000,0.2000,0.0100,2.0000
22,go,Hit,1,0.8200,"[0.0, 0.00987579556863388, 0.010761294797341232, 0.044251611245993354, 0.039493774392802126, 0.012033758361464794, 0.038419623024017704, 0.06196847800987927, 0.0753409981927765, 0.08821540243742279, 0.09139236797649888, 0.09196349317525203, 0.0955815834432703, 0.12466247083617699, 0.14110215218101696, 0.11293774498564808, 0.1327024833809538, 0.18228116234300062, 0.19607510993707153, 0.19592591221475866, 0.19563818659441504, 0.21255762664989392, 0.23883874720176207, 0.2077765601218668, 0.21031006889898055, 0.21757160295963837, 0.243786694038212, 0.24962035835225835, 0.25202274241509137, 0.29108694245270034, 0.2722353976103356, 0.31114407712850406, 0.2743118463369867, 0.2829930503375991, 0.28479902472451785, 0.2742056758271806, 0.29677869995889694, 0.28860209113074703, 0.27380739648046726, 0.32585902853447485, 0.31458684485556926, 0.31730875500700445, 0.3300410667488915, 0.327994306672589, 0.34445347919864566, 0.3253633186545582, 0.35021039908051843, 0.33775734882571506, 0.3367189591164114, 0.3280036692634057, 0.35307459231703564, 0.3277646952828914, 0.3642309494548746, 0.3555840979321577, 0.35842455825049147, 0.379242955620541, 0.3765876619660871, 0.38952756804861793, 0.40350145470467413, 0.3902997288749466, 0.39444241569426863, 0.3994636722761144, 0.3695059473874024, 0.4035966372706322, 0.3796559826198206, 0.3837673033069331, 0.40154574802532406, 0.4142130594742699, 0.453218091846292, 0.4686762782739662, 0.48862816073328674, 0.47766142209661827, 0.5189379751111607]",False,0.8000,1.0000,0.5000,0.1000,0.2000,0.0100,2.0000
23,go,Hit,1,0.8100,"[0.0, 0.0443459801380879, 0.025020830196258982, 0.03222059368315232, 0.05617824060519084, 0.07062077797853374, 0.09070965468648444, 0.09448954893020445, 0.12204828584078144, 0.1123356765953565, 0.14586954752952425, 0.16241223766443785, 0.16260117907559743, 0.15931193296998125, 0.16635237879911519, 0.1547759913754957, 0.11503011995749168, 0.10247135759680633, 0.07660424342836084, 0.08083483979451246, 0.1043239404717176, 0.11723315896235606, 0.14241099615123995, 0.15783631722066782, 0.13475844637832654, 0.12436231611545014, 0.1646288031677045, 0.18506754070821227, 0.18125354535281876, 0.16696749341384018, 0.20531598712748556, 0.23853232939215635, 0.2843826898665495, 0.2904532684111726, 0.2605511170856073, 0.2530379023950126, 0.28137573415615125, 0.27482044864464283, 0.2781687681121958, 0.28867159053929725, 0.28601913524621414, 0.27691392566469897, 0.2901267317722232, 0.29350009810837696, 0.2925278895511059, 0.29837727462950936, 0.2663317817412259, 0.2363345043872003, 0.21894204605352366, 0.22615045004092413, 0.2466177215075856, 0.26965486276630224, 0.2582638563748691, 0.26838528042268833, 0.29534040324523897, 0.3235151235289808, 0.337811593947338, 0.389565826958529, 0.4096053967447681, 0.42091441451996864, 0.3982332502094081, 0.4093995093104203, 0.3926998216829828, 0.39595423541387076, 0.4006876421863425, 0.40030069090725773, 0.39179244814593395, 0.42792313520859815, 0.44595732744911964, 0.49179670864318253, 0.48442204027950775, 0.5127291943007724]",False,0.8000,1.0000,0.5000,0.1000,0.2000,0.0100,2.0000
24,nogo,Correct Rejection,0,2.0000,"[0.0, 0.01314173815114619, -0.015635221785855, 0.006786649615274757, -0.015290654763398734, -0.0036807072978987145, -0.02637136183239806, -0.059270351859421436, -0.06702397163654746, -0.08303641998861458, -0.09138397521065114, -0.09898997590290166, -0.0747131930502272, -0.10351361171806948, -0.1166074882858384, -0.15365946781460033, -0.19014298841170646, -0.19742905041143755, -0.24658089959909021, -0.23505711870079368, -0.2291071830301401, -0.24670567279419087, -0.2621202723635269, -0.2746369700649122, -0.27509422746494194, -0.2759504943018459, -0.292212926913179, -0.28548478882628087, -0.28843169272717106, -0.3335806368490501, -0.3360378082332678, -0.3559269980250784, -0.347213051162712, -0.37920985106834965, -0.3828133288804016, -0.3904298010641398, -0.387355302124612, -0.3659475117773073, -0.4128109047039129, -0.43974186928329345, -0.4691197989986, -0.4750988600142259, -0.4750197976640071, -0.475811967200882, -0.48261024909817224, -0.4832681725906246, -0.5320134453580195, -0.5625540537668234, -0.5861978717402595, -0.5960930933316901, -0.6171737486970315, -0.6045066712976114, -0.5757343166636895, -0.6053693375205694, -0.6154398661778214, -0.6343869568600832, -0.6216581734728771, -0.6271333161415408, -0.6274306604944636, -0.6350196236645949, -0.6451681130140231, -0.6327704305395467, -0.6288452625112484, -0.6503755245346592, -0.640918596328418, -0.6511423711466697, -0.6427858359412817, -0.6416933777587271, -0.6434191920862563, -0.6472856597473965, -0.6570440250783683, -0.6780763952580141, -0.6834177720446777, -0.6941928029986699, -0.6871829287874799, -0.7105990844472683, -0.7339684652926531, -0.7212625693671352, -0.709203638303628, -0.7312734681753754, -0.766550246921254, -0.800441087469404, -0.7895520130207047, -0.8043384076387434, -0.818642855861656, -0.8515985127492407, -0.8601900471732083, -0.8585236478372823, -0.867204172176611, -0.8823940491798458, -0.8721471390509035, -0.8756052350737343, -0.8726100752267815, -0.887886234571408, -0.9017803962162071, -0.9250070415242925, -0.9473981153047888, -0.9634030245128073, -0.9456283416268876, -0.9329489300291708, -0.9590875327051539, -0.9302827703408783, -0.9391096640418025, -0.9454304595838853, -0.9662109681319694, -0.9626921482361618, -0.9830124929384875, -1.0208862688906453, -1.0058291430214792, -0.9913240904204978, -0.9807086695989818, -0.9739031710670547, -0.9427606227578151, -0.9290970735776168, -0.922562229472753, -0.9029427883081499, -0.9315905462409552, -0.9459723248725295, -0.9609970861385084, -0.9419013369651122, -0.9312745402822474, -0.9303217970324338, -0.9558452809525492, -0.9390435787335812, -0.9596136533269015, -0.9831777190733691, -0.9945655709021088, -1.0113722595522152, -0.9821249192517171, -1.0285831171508573, -1.0160626100105312, -1.0224036163552683, -1.0531899193783834, -1.0686432228118143, -1.079222247604892, -1.0788557928447704, -1.0936599210112754, -1.0823621414631963, -1.1099419778235946, -1.0764652430109916, -1.0894221540657403, -1.076884434726487, -1.0676110063327788, -1.0761057488415795, -1.0818715694234518, -1.0762401423399641, -1.0945907170301923, -1.1190723523508563, -1.1191401675317532, -1.1422719137312918, -1.1203678323295754, -1.1170753796493653, -1.132385607826004, -1.1668230198083305, -1.2020775909952326, -1.185860487571002, -1.1760454675999505, -1.2110265432236522, -1.2008807528977068, -1.2150285367107325, -1.204456775578055, -1.2222023490682226, -1.25666656689499, -1.2474529957268383, -1.2466611432870598, -1.2748280134732808, -1.2718070863835231, -1.2466386336713917, -1.27435572604984, -1.285098980118474, -1.2895451651056926, -1.290457143226912, -1.2982427073510332, -1.3084935589086, -1.3165499654387887, -1.3395121662969853, -1.3563925154574934, -1.3414172632125156, -1.3398974828191288, -1.32527787094818, -1.3361251110648058, -1.3572320335602954, -1.3604623650824592, -1.3758958736614535, -1.3676203792323474, -1.3450660991153924, -1.3529189263190524, -1.338693102236241, -1.3321268255741368, -1.3878344981086814, -1.3701963325462139]",True,0.8000,1.0000,0.5000,0.1000,0.2000,0.0100,2.0000
25,nogo,Correct Rejection,0,2.0000,"[0.0, -0.019175577961137023, 0.02148357969571662, 0.032523988360764415, 0.044447969894205006, 0.03609431178176626, 0.026363169351930185, 0.06888323395843779, 0.07369223564805075, 0.037474741326193065, 0.023523722047841422, 0.027682592497306403, 0.01606775241210396, -0.010225288068506366, -0.006322219105218187, -0.017282389410024638, -0.03252582655920164, -0.012566549112197893, -0.00048058180016010213, -0.022023312827587984, -0.031799241485142724, -0.024356491250566485, -0.03580834013824059, -0.0422575852562624, -0.03239238674688569, -0.01847561810821987, -0.08960745732667064, -0.09402876295804566, -0.08918662995991412, -0.09102342578972084, -0.07757969427835379, -0.0918769085510695, -0.13525024061842728, -0.12790360317178456, -0.14085142553135135, -0.15260883424968896, -0.14413260589311414, -0.1828810715578682, -0.17735935378500298, -0.17419411887184583, -0.17616035397696123, -0.18378185898074567, -0.20929708771632669, -0.24717416633765552, -0.26683295558884645, -0.2620081688611671, -0.28176389205443997, -0.30428761356261746, -0.3332772205868964, -0.34013694847687903, -0.37069369063478674, -0.39475730101890494, -0.38449829854787176, -0.39150245936610495, -0.3943818491509657, -0.41998093428023087, -0.458432117931016, -0.47917956651259186, -0.4391287290292945, -0.44863490506640524, -0.45180166548800643, -0.5062403203773161, -0.5218491149664524, -0.5609945396756357, -0.5625823643812661, -0.5944509799868504, -0.6123181057647294, -0.6635008509604476, -0.6987875182595669, -0.7397525647800286, -0.766525381651891, -0.8101130911648758, -0.8112342273801924, -0.8195475386146648, -0.7898658729956947, -0.7689593263641551, -0.8100980896387288, -0.7979829390927768, -0.8520542154946502, -0.865051470580868, -0.8702404514648916, -0.8893813546311432, -0.9168006527542626, -0.9391665702722275, -0.9524897692020299, -0.9553844591510313, -0.9954932412160183, -0.9976763188468393, -0.9976123203083951, -0.9984062021427536, -1.0187258813258129, -1.0908314957078453, -1.1348503005754549, -1.1534853885662135, -1.1687830417810938, -1.1961064778984338, -1.2353742920139705, -1.2287875581744885, -1.2131464368364009, -1.2196675028239756, -1.2310322672418657, -1.265787397907583, -1.2434837033390704, -1.2639116941730326, -1.266376316965212, -1.3001029522360794, -1.3413724077983937, -1.3513584040701965, -1.3754991271294448, -1.4117599742048015, -1.4412666914392505, -1.435037382176323, -1.4216341563721402, -1.4121376331656084, -1.4313410641512947, -1.4413214807449273, -1.4126177387482417, -1.4566027598507336, -1.4693352109117443, -1.4708508912339262, -1.472240889493241, -1.4973713566790012, -1.4946161133885263, -1.4843072077997526, -1.4952855168209458, -1.484903879323169, -1.4714286695233203, -1.460470680913818, -1.456491424784768, -1.4589176974635192, -1.4863571294187232, -1.4791985879566782, -1.485161765710098, -1.4955144889295078, -1.4961365228902128, -1.5398962201387136, -1.5255483277636648, -1.5694584539334588, -1.5750797874020852, -1.584571485348881, -1.5957250663505713, -1.6077178776523326, -1.6417595528054723, -1.6519170756395343, -1.652402955126362, -1.657644256493881, -1.6835351508159355, -1.674998936947852, -1.6971802595610537, -1.751285243935122, -1.7476022413022347, -1.7134649461606686, -1.7386740600905326, -1.7463590916466614, -1.7445370888287335, -1.7353010768844355, -1.7256521728176242, -1.766082656950693, -1.7946411299284704, -1.803848999999608, -1.7954910044538297, -1.781687098028867, -1.7768390349920884, -1.8177345617074896, -1.806628825086473, -1.809353586012316, -1.8163988326107006, -1.8520431752198174, -1.9082090681284951, -1.9312533723068408, -1.9440182639193464, -1.957382864852498, -2.010821858772924, -2.0081291441088522, -1.9992133452745737, -2.007195973143574, -2.038713860179239, -2.023514744945262, -2.040870043955241, -2.0774857643443365, -2.125186540223171, -2.1455870845009906, -2.1593757630875046, -2.1521854942116594, -2.174648878981947, -2.227836655538843, -2.226634154720128, -2.241439736234335, -2.2676055970141267, -2.2694932828777556, -2.3136319932672227]",True,0.8000,1.0000,0.5000,0.1000,0.2000,0.0100,2.0000
26,nogo,Correct Rejection,0,2.0000,"[0.0, -0.007837871111124823, -0.01470724250319683, -0.02381144828797556, -0.04349771993124296, -0.07090325872054518, -0.09158540897764979, -0.07778261949502806, -0.06519856337456145, -0.05450599307858249, -0.0326662224896917, -0.05586887440543473, -0.07257400437795053, -0.08435171447974094, -0.07597986632478469, -0.08334249617516723, -0.06274979325498524, -0.07064146789482262, -0.08991715717998133, -0.12345389050666641, -0.12838001865964926, -0.15329786836887666, -0.16277576735454347, -0.16826871311516356, -0.16896913060716484, -0.16087174978971253, -0.15991829426390566, -0.15559050716594847, -0.15358925492767497, -0.17809398729727133, -0.19936886874038348, -0.21916173295541236, -0.18968163440976069, -0.2182089275484229, -0.24363255173619025, -0.24209398910103022, -0.22817641430440794, -0.23248352325070706, -0.22499114250694235, -0.20597136608905747, -0.2413771418819446, -0.258167968161526, -0.29420412714221356, -0.3139345460315578, -0.31951841582349483, -0.3352269005296349, -0.3608705439275906, -0.38801313016226247, -0.3983730434486804, -0.39329983770709337, -0.398324638515035, -0.4021410087464764, -0.4176985611385413, -0.39165920879258587, -0.403455740230986, -0.4118984554227564, -0.45464308381089347, -0.46402910237332395, -0.4912476289980376, -0.49841378146057147, -0.49606306639447306, -0.48973516107561343, -0.47548342321741716, -0.5206153085819294, -0.5250361539897851, -0.5485740829859898, -0.5459652337582344, -0.5238707828667111, -0.5195463172861784, -0.5202667474288675, -0.5329727991339849, -0.5257640552714193, -0.5418974441554429, -0.5570404511155653, -0.5164429321708115, -0.5238556670444136, -0.5345518200733909, -0.5587836556994517, -0.5909697547476236, -0.5800511239852134, -0.6182335870096808, -0.6317630341029701, -0.6378658076996404, -0.6491443056294145, -0.6726973345710161, -0.6805831078519363, -0.6616734317893784, -0.6963900808907207, -0.6945298951689641, -0.7160927870897841, -0.7528260734457718, -0.7181434009909297, -0.7572373469617261, -0.7486966170699154, -0.7476643440787832, -0.7530574977080359, -0.7502061362002845, -0.7614532078664198, -0.7938691491093285, -0.7885298325149398, -0.7832647503956685, -0.772753096277392, -0.7791322415057786, -0.7720572164183009, -0.7758961704303103, -0.7852560055610484, -0.8176560488414603, -0.8109195477485664, -0.8328464182488716, -0.8645721214847494, -0.8898734829211865, -0.8857120288767373, -0.900238800113217, -0.8900041314963383, -0.8958672364322482, -0.9240567639042745, -0.9359328934750144, -0.9199529109232316, -0.9112161327826687, -0.9057259713552156, -0.9039569120692402, -0.9369664240635078, -0.9334362850393833, -0.9630457271302222, -1.0001081835022352, -1.0124278430086486, -1.0527160495196373, -1.0825987197807585, -1.104241026228881, -1.1304079388892143, -1.1387395010585533, -1.1613381552649675, -1.191272224555297, -1.2386128030548271, -1.2321393189806586, -1.2621351150781657, -1.230773254553861, -1.1954830205148368, -1.230127626170365, -1.1878559301197682, -1.2138526186021614, -1.2304808855716984, -1.229660308125879, -1.2413950854422633, -1.2329990295453854, -1.2549762073200332, -1.230612514598089, -1.2686092730693672, -1.2800237995727115, -1.2792939598960746, -1.2869253722545693, -1.3261385039469886, -1.3198885551957578, -1.3364714492230638, -1.3424734983124882, -1.3578944933816166, -1.3169332805117107, -1.3259721885198255, -1.3427718825795472, -1.3508838235617127, -1.3374721000869498, -1.3502039866179076, -1.363109212708259, -1.3823994196164873, -1.3793044583129412, -1.3598993156558217, -1.3916565930710323, -1.3981135449817288, -1.3852875262266604, -1.4044628977245206, -1.4731931956367181, -1.4810705864069924, -1.4866803508566653, -1.517035950062749, -1.5246710949877036, -1.5512757640549313, -1.5775828101880272, -1.5809685799328508, -1.58701271184044, -1.6074818214799773, -1.6209185221770417, -1.6580305584372956, -1.6476122425942055, -1.6722590402767805, -1.707966549967486, -1.710383614374915, -1.7010899094470182, -1.7169621926116725, -1.702760460843743, -1.7013252147151767, -1.7192277145606285]",True,0.8000,1.0000,0.5000,0.1000,0.2000,0.0100,2.0000
27,go,Hit,1,0.8300,"[0.0, -0.037051621911259026, -0.0535860230541515, -0.07418075593095864, -0.05971686057660722, -0.07921210599672154, -0.09397357192276935, -0.09284864159303395, -0.08904390479054346, -0.07098653475836347, -0.06988334833867517, -0.059514507389370905, -0.04246852559951951, -0.013561042819970212, -0.010738896137174027, 0.012650155501912723, 0.017175632803487273, 0.008818413691420442, 0.013617518163746112, 0.0058617508620079535, -0.004667805556781129, -0.001044718013555883, -0.014236383188389518, 0.0005369196768824601, 0.03411043929927314, 0.04779987184484619, 0.06515790795136192, 0.08900852836617, 0.09673065490908775, 0.11253336403584058, 0.1235327656021311, 0.13145857482630977, 0.10436529854408841, 0.10986853445525302, 0.08156191856936218, 0.049600144974182823, 0.08742082710343654, 0.10047060533441027, 0.10880055126532631, 0.12038129868906433, 0.14770080395352067, 0.14776362821170042, 0.15331522015705884, 0.1598357084825485, 0.15281280702319078, 0.1745917162805643, 0.2233786522832988, 0.22448106533807888, 0.23409537466447344, 0.26818635630151244, 0.25092367575995994, 0.2644634813337826, 0.2869986940871484, 0.3058730834378104, 0.29365461111553043, 0.3068554117813939, 0.31877645597242993, 0.32546145682568833, 0.34979219653558896, 0.3868034546133235, 0.34845533934747136, 0.3298488085999406, 0.34784263157467943, 0.38559557423625385, 0.3919326903537812, 0.4230907363246473, 0.3888609089908013, 0.3771095158403476, 0.41991821173649824, 0.40437649427981615, 0.4234021931803084, 0.4494678972584302, 0.4770291584906491, 0.5110073292369124]",False,0.8000,1.0000,0.5000,0.1000,0.2000,0.0100,2.0000
28,nogo,Correct Rejection,0,2.0000,"[0.0, 0.00019356732185315043, -0.051853164224940004, -0.056770950217702315, -0.0547136162479772, -0.05972109104387811, -0.08032158909374487, -0.0680613899596641, -0.04741841958255531, -0.05234316344969389, -0.06067459461085059, -0.08878644220639734, -0.08679755410221643, -0.10880531821327338, -0.10231905005383923, -0.11992826906892647, -0.07841580383888871, -0.11165976664854127, -0.1309154606419053, -0.17383300279881203, -0.16195971853265242, -0.18530926447598262, -0.18095235754694203, -0.19702956377833392, -0.21390479312687335, -0.21194471158200381, -0.2081510073515098, -0.23239321118087058, -0.2782660777007183, -0.3040737187277272, -0.30307658290887196, -0.29532261115821656, -0.31856649643253865, -0.3039853693063362, -0.25465272256846183, -0.2666917900635957, -0.2736842400421633, -0.3182029626553585, -0.32819723878111695, -0.31229535852125034, -0.316369234844841, -0.3499714374908701, -0.3794304172371318, -0.4160632276073394, -0.4493444416972435, -0.4745083080020015, -0.48642946844969676, -0.5094963789178297, -0.5152173124384808, -0.5406263069232045, -0.5830224852475295, -0.6007288679919787, -0.5714373936695486, -0.5875468548835161, -0.594596738497269, -0.5807150080070541, -0.5803229132522905, -0.5670599597970338, -0.5833393553736016, -0.5966977377994322, -0.6268314263116996, -0.6494674000884973, -0.61450108140277, -0.6071150296180009, -0.620362869160185, -0.6304576265961261, -0.6539711439877822, -0.6645435295737122, -0.6850149455819596, -0.6744664219170079, -0.7294762478476136, -0.7400852999974117, -0.7497101411510698, -0.7817238562584933, -0.8046496397367054, -0.7944705624814432, -0.790915414382732, -0.8085912559876893, -0.8590212920703986, -0.8816390020119965, -0.9012953104359392, -0.8869067194320288, -0.8617954532379639, -0.8797563272132864, -0.8695613993412791, -0.8878638438904006, -0.9302168242372915, -0.9449274592921633, -0.9630794336931612, -0.9669206861943825, -1.0081490952763434, -1.0549764844501819, -1.0692189797476874, -1.1067619269258944, -1.1246440091019585, -1.1448738220517884, -1.1563760315712237, -1.167538401744611, -1.1736707516222362, -1.1714639469827648, -1.1598360037528452, -1.1664072400228358, -1.156891066330949, -1.1673788376609113, -1.1563359777111104, -1.195333907766073, -1.2108341850103213, -1.1799311742693923, -1.2110544555920493, -1.2066979935745086, -1.2215733393887165, -1.2687235991999068, -1.2843074262216123, -1.3120189870174392, -1.281004605249209, -1.2790311181171476, -1.3213199777683744, -1.3221903868882434, -1.3491941136795182, -1.3417543416978126, -1.3470796245515988, -1.3738466921169634, -1.3792994639810328, -1.365759452449264, -1.3435726666490415, -1.327549171807763, -1.3305979868578726, -1.3369227889963922, -1.3395811691660173, -1.3471239513063094, -1.3481277104577685, -1.345841155846494, -1.3470132613359382, -1.3898808240480136, -1.4077980787475526, -1.4665872672762212, -1.4830655009076907, -1.5118044447204266, -1.5236736616102198, -1.5511023657608694, -1.5424022914934234, -1.5534301260772634, -1.5311260952184245, -1.5853075167229742, -1.5937071698339325, -1.5673014751108125, -1.5788392125842292, -1.5613980880918195, -1.543540911556601, -1.5292046792611411, -1.5566044432966728, -1.5877417602596728, -1.6044647951505129, -1.6138640545163732, -1.645319383010022, -1.6349977959889679, -1.6546810147447781, -1.6506305715690426, -1.6281223277080343, -1.6231791498106103, -1.6442888485434763, -1.6449683805476867, -1.6718319425222583, -1.673303258629565, -1.6753874144111787, -1.683368185162915, -1.7088474560936557, -1.7329372731835995, -1.7578641569637066, -1.7845199872456194, -1.7811170990971654, -1.7932723686944494, -1.8166842319187744, -1.81610629616838, -1.8382224470774842, -1.856195645230734, -1.8665455676549545, -1.8811334511066131, -1.870461253010658, -1.9088995238997903, -1.9047569808566656, -1.8943407586358507, -1.9254348009634636, -1.9217021899899267, -1.9096913414990153, -1.950931223519653, -1.9891237136627233, -1.981618808328835, -2.011376342079302, -2.0185608578699465, -2.0282648310398574]",True,0.8000,1.0000,0.5000,0.1000,0.2000,0.0100,2.0000
29,go,Hit,1,0.9700,"[0.0, -0.013979686200264671, -0.03739900151908964, -0.0397531066103347, -0.0381544402743588, -0.011746238509443504, 0.012694147239912766, 0.05044429935938619, 0.05352209004450363, 0.06000779622021252, 0.07230159465936721, 0.055947155406453085, 0.06268157593947972, 0.05510885043129482, 0.08603470239103216, 0.10203490105540497, 0.10757392379370546, 0.10318746887393403, 0.11241027544433775, 0.11040347540256626, 0.09373102771427191, 0.08524515976805319, 0.10578917072539584, 0.11921415570152845, 0.12883204491466826, 0.1422544624088242, 0.1957342754352532, 0.16239623995306812, 0.16906472713903967, 0.1807947593435188, 0.16820529336348422, 0.1799679873669894, 0.1746478194083102, 0.20928528336052027, 0.19934724910609675, 0.22248654133155749, 0.23297552062071553, 0.2135699446085322, 0.21076984051141248, 0.22410635520680405, 0.18977650988449307, 0.18941984122235594, 0.23220380245738187, 0.2552352668789327, 0.292443654019129, 0.2947223108801844, 0.30704094215836886, 0.3068303035571766, 0.26596696053934676, 0.28194287749724345, 0.29861384557367143, 0.2972075659082491, 0.285268277726101, 0.30581896195815234, 0.29315081456920744, 0.3113136940649028, 0.29645974510314715, 0.3078074941420896, 0.34133365648265, 0.3894541909598263, 0.3954081037924384, 0.4363962232312203, 0.4590179557470824, 0.4536987419177913, 0.43628137251723154, 0.43334371151586953, 0.42543093388110703, 0.4227495612173257, 0.4250952188351315, 0.41794427585022487, 0.3971867087800509, 0.3986416004861751, 0.4274149366927452, 0.4239636626320073, 0.42613342859793346, 0.41985073056585337, 0.41231118141558776, 0.44364528921697327, 0.45391968095312574, 0.462028433078538, 0.4479138570772109, 0.4594566893287489, 0.44100148919477433, 0.44573074995101425, 0.4643445016902046, 0.4844902508153892, 0.49912506645688187, 0.5212281489073168]",False,0.8000,1.0000,0.5000,0.1000,0.2000,0.0100,2.0000
30,go,Hit,1,0.5700,"[0.0, -0.01022681694037321, 0.03286159097022146, 0.037151203950282374, 0.05674768340023369, 0.07356481817016268, 0.062101814311302586, 0.08442470848770657, 0.07726139178194419, 0.12464028617076023, 0.13368942968708214, 0.14523336003829035, 0.15310297128252626, 0.173234233256356, 0.14314579120830764, 0.14249605370853602, 0.1345309630673732, 0.16028033059250543, 0.15175715018216748, 0.20256016205252284, 0.22906504766290042, 0.19257150228526224, 0.19699656525300777, 0.2096751104056259, 0.22707727327847047, 0.25336266296767745, 0.2534990724708642, 0.2831977081668677, 0.30658822902548205, 0.3127854980122361, 0.31795829475596143, 0.32964084341582134, 0.32216204179716984, 0.29912833178897336, 0.3109200234128565, 0.32695724778505714, 0.323962530225904, 0.32570689069470765, 0.341554351126598, 0.36405414619295756, 0.35705316664742964, 0.40345206806003553, 0.41520016671371496, 0.4312960440739493, 0.441117944486326, 0.4660808125994118, 0.4889880004467583, 0.5075994116051171]",False,0.8000,1.0000,0.5000,0.1000,0.2000,0.0100,2.0000
31,go,Hit,1,0.6800,"[0.0, -0.014135602018811068, 0.02993117656442889, 0.02999668966408707, 0.025270900286815237, 0.025979163882854987, 0.05225986850208549, 0.05234075717478434, 0.04366465619734196, 0.056485295835213, 0.05378224790156189, 0.07544818860038427, 0.07390142778534484, 0.07985057472036265, 0.08632681239978186, 0.1252841686499843, 0.12254859845682195, 0.14677366200267747, 0.13470588451370827, 0.12298794193642033, 0.11616401785707305, 0.1182523701060958, 0.13082524633926673, 0.15136643317770979, 0.1840273184059974, 0.17695281877957253, 0.20844417712048385, 0.24331374431333705, 0.26398907602082583, 0.2699640992072186, 0.283266622760532, 0.3104729214207292, 0.32097810282192224, 0.35082812814431696, 0.3511536460438173, 0.34466306750189224, 0.3266691085885628, 0.33664685733697547, 0.3461906781457369, 0.3623949248839635, 0.3709442366810355, 0.3837075883472536, 0.38014773993314466, 0.41700038791024996, 0.45117365227475065, 0.4276661935883657, 0.4313923502714316, 0.4240401012717166, 0.45382319634053464, 0.4565381704887044, 0.4443642703568461, 0.49196659635607953, 0.4932042236537163, 0.48327712285678637, 0.46910303425363964, 0.4850285120225855, 0.48287502046118774, 0.48250122291405095, 0.5056801869647158]",False,0.8000,1.0000,0.5000,0.1000,0.2000,0.0100,2.0000
32,go,Hit,1,0.7500,"[0.0, 0.009711257440264076, 0.04278806310288846, 0.057841574192475716, 0.06598941681558586, 0.06013056650719342, 0.045332875444453864, 0.06645737567696922, 0.0809928820095936, 0.06828095147868475, 0.08761626620835838, 0.10180250570631641, 0.1244154793002443, 0.12907788590504327, 0.10618449939504113, 0.10218759499997969, 0.11139188067289592, 0.1106902933771673, 0.146124394231207, 0.13197544419197507, 0.11933371454617606, 0.12957396238215535, 0.12001633641302056, 0.14330122609571305, 0.15237858370630958, 0.13598742102594186, 0.13536267888050973, 0.13441248305255438, 0.1516581555086226, 0.15404648594858616, 0.1280399426019373, 0.14100693190888977, 0.1642221576281563, 0.16849522936645814, 0.16285470123441662, 0.17473986172166028, 0.1933916319304054, 0.20435131312554797, 0.19141745845696945, 0.17815164335858225, 0.1921223409018081, 0.18540881795032332, 0.1983117620771357, 0.2022120290768731, 0.2133669591110732, 0.2469425438395796, 0.25857986919801507, 0.22704603520924377, 0.1935550322863871, 0.21352373593815732, 0.24716804039726026, 0.2605733197604355, 0.32066742497412304, 0.3210280271626272, 0.34397239376861355, 0.3496100214221227, 0.37312757508457584, 0.3892880239131816, 0.4058896232776418, 0.4073090951894684, 0.43327260264949496, 0.4669732113376581, 0.47237708989111243, 0.47931993652105115, 0.48972178003247935, 0.5094175422740183]",False,0.8000,1.0000,0.5000,0.1000,0.2000,0.0100,2.0000
33,nogo,Correct Rejection,0,2.0000,"[0.0, 0.011546267416730628, 0.0356707087575637, 0.04897851372358867, 0.04027481414010516, 0.01615551737297033, 0.002218318089537869, -0.015366142303326521, -0.0019445863631291829, 0.009007250041340916, -0.03279937216253232, -0.050321140019134056, -0.029427572459617322, -0.055542583805018336, -0.06610037429585536, -0.10524521012323214, -0.12071703394558925, -0.12442801830630955, -0.14976702499720548, -0.13756280786793948, -0.1495317547528792, -0.1861947423238104, -0.16565330531989125, -0.16507712045464634, -0.1960504069618541, -0.20752004711891545, -0.2239268171580266, -0.22194862814472666, -0.23697226812848574, -0.2556911036197806, -0.2872825250281138, -0.28162991078779304, -0.2731913600716, -0.28164575606542847, -0.28986252223796133, -0.2821588854037131, -0.2605235802463413, -0.26482144481093195, -0.2709795480054518, -0.29294825966389765, -0.28106736591697595, -0.2910345590125129, -0.2877152872023529, -0.3265105226189521, -0.3231398633159235, -0.3437596645898107, -0.35751106630962914, -0.3709162717015697, -0.3772089748931534, -0.3633977743323457, -0.34193129534919636, -0.34501977271609774, -0.3538340567191922, -0.3219819399809416, -0.33262095718372436, -0.3140038081190644, -0.3154184732369455, -0.3237801066420586, -0.3568918641236196, -0.36006607347303504, -0.3857232656741807, -0.39333173946162403, -0.38085635012858704, -0.377296527906846, -0.38187280721653316, -0.4065676600287247, -0.450362288042454, -0.4810578383052064, -0.4982020334980355, -0.5064041102541467, -0.5361414749920858, -0.5546243755593087, -0.5524078264872804, -0.5889324842242404, -0.6066265032999599, -0.6087464478233092, -0.6346554202836768, -0.6461344104898286, -0.6691733693138479, -0.6703479696183796, -0.7043662381333913, -0.7036565601565002, -0.6874896392450135, -0.7237504916732795, -0.7362241675284149, -0.7227776952026002, -0.7382774366474756, -0.7635173608432142, -0.790073888724692, -0.800105769369184, -0.802320274183607, -0.8038259749104645, -0.8542539883276014, -0.8765944781410453, -0.8846924103596076, -0.887703283164726, -0.9129089409948373, -0.9372984428391189, -0.9450910985516944, -0.973306773259804, -0.9550216960160093, -0.9572194243921945, -0.9493862725577488, -0.9325440868016717, -0.9439440992435542, -0.9225661206256269, -0.9309830924480351, -0.9294074006385162, -0.9549060148005324, -0.9795099249786419, -0.9821585207882194, -0.9844795931475242, -0.9826180982781606, -0.9953914821939482, -1.0049276107493232, -1.0006267646060545, -1.0165448979913356, -1.0331084640395691, -1.0623079414391512, -1.0377008818077904, -1.0420336385305797, -1.0433739530217796, -1.0716485035787326, -1.1245900197907004, -1.1198215959718856, -1.1113932650441827, -1.1157409225878376, -1.1139238585378355, -1.1459213904684444, -1.1567870837853256, -1.1772669924502928, -1.1692700056068859, -1.2186438839265152, -1.2616081890688102, -1.2649258835587942, -1.256818447642938, -1.272448108356283, -1.2648315816106384, -1.3260853137609951, -1.3376780335475276, -1.3416160020727046, -1.378158183310497, -1.4018383578650966, -1.3957933673158534, -1.401184325990064, -1.4056726177939147, -1.404222529445143, -1.3729039096455073, -1.3963458778139777, -1.4251366390689708, -1.4889279128922344, -1.5018839785352294, -1.5044642076812502, -1.528606242774303, -1.5216302346463293, -1.5339668245282279, -1.5556242507317541, -1.5497770881732242, -1.563948717956346, -1.5666295324108819, -1.5762964220167195, -1.5400157595493444, -1.5837951062492086, -1.6538463572583688, -1.6711960833775878, -1.694403618185961, -1.7239556098750175, -1.7288804970894602, -1.753844047254325, -1.7738755458422062, -1.7821357405136822, -1.7708730163299515, -1.7990153954480308, -1.8270972914689105, -1.834490233638652, -1.8193908160687673, -1.8094994090310266, -1.8203656942341018, -1.809052286389208, -1.8537550454509912, -1.8806642115728631, -1.8809578358393364, -1.8842061379328199, -1.889541662319912, -1.910267784633747, -1.908307002013575, -1.9374606603151956, -1.945809913143538, -1.940057809888912, -1.9443829880627466, -1.931135303409209]",True,0.8000,1.0000,0.5000,0.1000,0.2000,0.0100,2.0000
34,go,Hit,1,0.9000,"[0.0, -0.00553215658622239, -0.013561029375823219, -0.03035707961466721, -0.028531646481843018, -0.01241636563813385, -0.00802896574894763, -0.02772610250213975, -0.00578203250801582, 0.01388171035304276, 0.017381496529485875, -0.007603614515170214, 0.019118315694366252, 0.0011435486512156937, 0.023294112375180052, 0.03563674682574308, 0.04642081957290319, 0.037121161979744854, 0.04640830629404226, 0.062426430673119544, 0.04836952252015783, 0.09493051616301157, 0.11539683711814022, 0.11834976159608845, 0.11776896297681338, 0.14315633178404127, 0.13814483115316475, 0.15267737709362042, 0.14229474153017363, 0.14251804866917592, 0.14976135580600414, 0.14282298789444983, 0.12282428752690022, 0.12606576913159862, 0.1548995868613266, 0.14719442694222393, 0.1486518129503239, 0.12257187237629312, 0.13364313853512513, 0.1761427547474817, 0.18778055682257475, 0.20236473138939956, 0.20335331488692257, 0.21111653551669995, 0.1924389295862603, 0.18690449729026173, 0.17603130701124034, 0.1490403448082478, 0.17202450284156726, 0.15589773680974653, 0.17921538691108788, 0.1961638813390187, 0.19965464922433357, 0.21128786258196142, 0.21795926883681108, 0.24932630662540062, 0.2410511635474151, 0.25011611593586347, 0.25970590014934053, 0.2682807973904717, 0.2647835539285487, 0.24757995425814192, 0.24083615254816235, 0.2506625799112258, 0.2657747001120195, 0.30082708170319494, 0.32273551936844175, 0.3298206090240037, 0.34767279431556, 0.33496300641009313, 0.341452541897131, 0.3443546328684651, 0.3908732137919125, 0.42211260193448163, 0.4077582802472918, 0.40638940170066534, 0.4319416061492013, 0.4468184891155477, 0.4637453049827394, 0.478360503573979, 0.5029087555739933]",False,0.8000,1.0000,0.5000,0.1000,0.2000,0.0100,2.0000
35,go,Hit,1,0.5400,"[0.0, 0.008980739090704194, -0.023233801079408915, -0.043148325817101346, -0.04527277946142564, -0.027163396718468635, 0.0026630714719939087, 0.02872319826134621, 0.02560718572806016, 0.04010897105351471, 0.05082781173994155, 0.08890711388672955, 0.10451202582081323, 0.13719635130578717, 0.1213803525444332, 0.13303255010908346, 0.11979888380864773, 0.1000739619568361, 0.10299279107722487, 0.10929575748380191, 0.12222235177091054, 0.15859253971019976, 0.19748650179085764, 0.17136974685981787, 0.18793440821741675, 0.2403293858566243, 0.22435877307982102, 0.2521213364852568, 0.26015297450292024, 0.2588348699531725, 0.27025682828248626, 0.2970230400842329, 0.32180029487673023, 0.33480544534437595, 0.33645666524062096, 0.34539142973890663, 0.32444158404434376, 0.32358935663166255, 0.37655752839594564, 0.3949149884792142, 0.4300262712402357, 0.4415674367758833, 0.4526871635852615, 0.4802580987150762, 0.5080848158227271]",False,0.8000,1.0000,0.5000,0.1000,0.2000,0.0100,2.0000
36,go,Hit,1,0.9700,"[0.0, -0.014219616909969653, -0.046994979980335326, -0.05578165129015844, -0.06411726691984418, -0.06156944010465383, -0.06755291570541821, -0.05629453927707004, -0.07026873483726075, -0.06864041304135009, -0.066896667653245, -0.06373457087169188, -0.05172303104430682, -0.05990399157587453, -0.059258126588841685, -0.08904901729968696, -0.07127363479908853, -0.029430632435842444, -0.052527481674674484, -0.04016233201508321, -0.0735055498039403, -0.12206605180099706, -0.10971223374717895, -0.0892313897598288, -0.07178843283603627, -0.06023446349892271, -0.05123041998744933, -0.06432178423802387, -0.06243078686049962, -0.019766949029217752, -0.02350809737575763, -0.02138366415170273, 0.012956747381866432, 0.003052832423653982, 0.0022958405373921277, 0.04719275615318315, 0.08047853364110755, 0.08070919588954606, 0.08907516179907307, 0.09878882214911101, 0.1285329062461208, 0.12692288317068406, 0.13411000150579416, 0.12151426167506027, 0.14111250747504522, 0.16799053131343641, 0.20960112538380105, 0.17866428064024048, 0.20503476540193835, 0.22290623151896843, 0.22284896042339292, 0.2706359005249895, 0.26318244196058327, 0.28224169034297064, 0.2956017644556901, 0.2832743597212163, 0.28802342536651676, 0.3046263355718261, 0.27291070635744413, 0.3092374309412429, 0.31246519894191777, 0.3099596067366502, 0.34401676118727764, 0.3474508788798138, 0.3678148828652709, 0.35163724880913866, 0.3857794456745623, 0.3749999022236128, 0.3637553428331461, 0.38838358467104245, 0.4104005046805561, 0.3888151434650286, 0.3837781249231752, 0.3675485338022899, 0.3508117925518356, 0.3654014367691729, 0.3631115860199929, 0.36135186577892153, 0.3657426683159608, 0.390448797236448, 0.42161012958671756, 0.41470285375082716, 0.42412597496037663, 0.4325237206941307, 0.45240653565241723, 0.4677220876917623, 0.4808848595810066, 0.5144683737572942]",False,0.8000,1.0000,0.5000,0.1000,0.2000,0.0100,2.0000
37,go,Hit,1,0.6700,"[0.0, -0.0005250996049827039, -0.020567880612465526, -0.014449908889575064, 0.023628883498892223, 0.0776407032862714, 0.09362723793721604, 0.11570008061892723, 0.09527377386675255, 0.13323628660862144, 0.171134494485152, 0.20510987814287393, 0.21671864882100383, 0.2365360544847413, 0.23297926060602575, 0.2453515017822301, 0.2618816233243761, 0.26476086866985465, 0.2573456868155051, 0.2218615693752188, 0.23704723511966208, 0.2715827851244904, 0.2787037097070899, 0.30506916317337396, 0.2867541203601311, 0.27348723962173466, 0.2775684881949943, 0.29388165799319266, 0.2845003990410622, 0.32926295625017993, 0.33584717819522814, 0.36540117926285365, 0.40690893293382807, 0.442969538741818, 0.42316414556785487, 0.4212914498034001, 0.42461020728173077, 0.443707787852067, 0.44711628426514244, 0.43423749876286855, 0.44495824232118464, 0.43328858287805927, 0.42623044745731437, 0.44157604369688214, 0.4374547977040515, 0.4176673764499742, 0.41731285154796666, 0.4030571422767154, 0.3991847121737355, 0.414509777373438, 0.429229508184817, 0.4440813064035333, 0.43266542098729927, 0.43744610211981577, 0.43514996073273743, 0.4631360653963951, 0.47890510267212727, 0.5063118216245938]",False,0.8000,1.0000,0.5000,0.1000,0.2000,0.0100,2.0000
38,go,Hit,1,1.3400,"[0.0, 0.009835232012853967, -0.004896580736027334, -0.00044740960246499907, 0.017215136229458125, 0.023303840401514613, 0.005656915799964229, -0.00028285677619060284, -0.02565759165714114, -0.03734578334705828, -0.044634675768080834, -0.028389442002564727, -0.023888739651327835, -0.025863973322939243, -0.0331152916172959, -0.06095433791761389, -0.05047913558098213, -0.021902012823305627, -0.028187596795683667, -0.055370211635797945, -0.06503404894458377, -0.05290024694466229, -0.04387203848869431, -0.03623357868391863, -0.0329201930219821, -0.01673599745720388, 0.02315452310571605, 0.031673303470443365, 0.013058283842029027, 0.033290143859581706, -0.0073283692957917534, 0.005066864047528057, -0.006871453960238015, -0.028627494455494548, -0.007643722292816249, -0.026917332124421926, -0.03432454535825334, -0.017612067189221585, 0.024645993619612658, 0.05794130986388227, 0.04852969213625419, 0.0458391687280914, 0.06773363315608091, 0.06972151196069354, 0.08966198876159429, 0.09210765568300033, 0.11317475750520054, 0.1094800394640232, 0.09038262892155224, 0.10369368053427483, 0.11364495171729731, 0.13381119800573324, 0.14447204952995926, 0.12610772453998922, 0.1439601532974512, 0.15041067914790263, 0.1549936404711182, 0.1614001957518718, 0.15700398075659872, 0.16388322919642573, 0.18329168027717802, 0.1853768223398043, 0.20737088533472756, 0.2030537519423046, 0.1833467465494296, 0.17627158184284233, 0.16376893329216968, 0.17565532287694383, 0.16446385538608657, 0.16304023727923347, 0.18673031675695498, 0.19942507336516663, 0.2246066907889368, 0.23396749956382396, 0.2138026420548193, 0.2201590986732103, 0.23038923757140597, 0.21748404762992465, 0.20235642785386795, 0.21536560177837144, 0.2110106245266698, 0.21083888241940554, 0.21788023369005452, 0.22193364546635727, 0.22193520021041727, 0.20363776980229722, 0.20690353137792208, 0.2372983052319769, 0.2030667418475881, 0.21967730490903128, 0.21061858953673163, 0.24067894435545464, 0.24570017735184566, 0.27551215694188297, 0.2966137770182498, 0.2925017684205439, 0.26644272631999877, 0.25709500052899753, 0.27767552161056397, 0.2686434125195087, 0.29054569338456177, 0.2891157776376018, 0.28037318681132634, 0.283259105535575, 0.29000338354190747, 0.27083486994203904, 0.2556722940171444, 0.2719205088938371, 0.26150426905646357, 0.27344161100679587, 0.2819954360484832, 0.3207883908716399, 0.34091154575201077, 0.3597343297409038, 0.34462260427181285, 0.37180298292533404, 0.37695890772664237, 0.38778944333488224, 0.4446541872548657, 0.42818292515419365, 0.428085518367076, 0.4475062570479585, 0.47157783796024216, 0.4891122331169872, 0.5209132752134321]",False,0.8000,1.0000,0.5000,0.1000,0.2000,0.0100,2.0000
39,nogo,Correct Rejection,0,2.0000,"[0.0, 0.00889456140916886, 0.012366946399333667, -0.0061105737781986524, -0.03501284919663421, -0.06078647298011289, -0.07695294398716176, -0.11165398094343298, -0.14308678335820535, -0.14218339457285434, -0.14067609565480577, -0.16454980462498245, -0.19489135780509922, -0.19338975585304874, -0.19678130972672148, -0.1947547697699131, -0.17437207895629644, -0.1835780040496623, -0.19992959849264447, -0.20873720253046374, -0.19471931789356614, -0.18768948547504494, -0.19831773818363505, -0.1901387762590914, -0.21293510367947438, -0.22291566108436256, -0.2400198226408077, -0.2434663908306347, -0.27087877387146514, -0.2519127741924315, -0.27113867276167475, -0.2944937975668056, -0.2853090949745711, -0.3084335947364915, -0.32868042418626564, -0.329615891557186, -0.30861703292663206, -0.28304829110166685, -0.2709315960491516, -0.25926886675175465, -0.24209852549605693, -0.2596612660918046, -0.28406715990518605, -0.2567467216562789, -0.2254706487953844, -0.24522492774248816, -0.2253056200198463, -0.22453593083171167, -0.24231352944659357, -0.23842961155620968, -0.2547105585861565, -0.2707907204865268, -0.32265796132361324, -0.3179978916377299, -0.34890088684526943, -0.37736793611790087, -0.3790196571008724, -0.3759013198893171, -0.3916944317417102, -0.4293413436899651, -0.4674271587170955, -0.4825818089264609, -0.4865912827821402, -0.47664590170999577, -0.5067713137296438, -0.5364941636576666, -0.5336231752954976, -0.5324358266283555, -0.5537626156306916, -0.5956037338885528, -0.6175084661059851, -0.638406561012754, -0.6753341935574902, -0.7225398783333133, -0.7656364822695688, -0.7898261027938135, -0.7753617291833935, -0.7613752550084321, -0.7477076113839739, -0.738572882439302, -0.7404872448129635, -0.7315727791516076, -0.7505745016894547, -0.769846959562235, -0.790704083558984, -0.7741243979386475, -0.7820242238771167, -0.7711900587220301, -0.7661988451313766, -0.7593560503380631, -0.749567176633105, -0.7725436181230891, -0.7466355241606409, -0.7594120710380314, -0.7882750001637104, -0.7741676262086354, -0.7803010471093244, -0.7712406089960021, -0.7249175356282292, -0.7020262456400832, -0.6789714426932826, -0.6496680505030848, -0.6808026620949096, -0.6773273789607114, -0.6713508083243318, -0.6987402885544175, -0.7106524966302941, -0.7285177231881156, -0.7310041028089702, -0.7159455745952101, -0.7332346683164755, -0.7240139185378556, -0.7285901912909771, -0.7607234972483078, -0.7851432488867096, -0.8006064170715242, -0.7798538874057531, -0.8403394776217319, -0.8452354917987197, -0.8455333251706239, -0.8607040837096646, -0.8731749712191404, -0.8984089562132612, -0.8949934068321466, -0.8728880244579686, -0.8641711097520398, -0.9065377586233305, -0.9206325961279748, -0.8883383791264892, -0.8916599638242723, -0.8624054567771262, -0.8311452872742996, -0.8599330110294865, -0.8608501042007727, -0.8662169835654528, -0.883363920792351, -0.9038296216129067, -0.9186104040065699, -0.9059694001966083, -0.8910990865657127, -0.890211785872943, -0.9146442786439376, -0.9062220421675208, -0.9196490723099517, -0.9231755294140266, -0.9309113808468038, -0.9205321818691381, -0.9259176244583837, -0.9115898989817777, -0.8956822498208199, -0.9209010813774848, -0.9300693035067134, -0.9337997966401498, -0.960367379814762, -0.965307458744632, -0.9452337426788942, -0.9597367356682598, -0.9698576533148694, -0.990361949895188, -1.002871823164805, -0.9974836493296665, -0.9929658246604618, -0.9839978330166292, -0.9723838063895127, -0.9995915040299178, -1.0214423015707654, -1.0106610986267244, -1.0364050960930902, -1.0271700665727526, -1.0218812840727614, -1.0506116241879215, -1.074153764938261, -1.0979502899155489, -1.111949781300155, -1.145480788831712, -1.1348544667347416, -1.152148988201478, -1.14089242374671, -1.158336440686036, -1.1631927682225445, -1.1792924018006241, -1.1924176649974143, -1.1761689912842086, -1.1648976345966031, -1.1520820588562681, -1.141867421632832, -1.1438117397578214, -1.1828442160386072, -1.1768805339210018, -1.1921404861197407, -1.1835745051376072]",True,0.8000,1.0000,0.5000,0.1000,0.2000,0.0100,2.0000
40,go,Hit,1,0.7000,"[0.0, 0.020433648007467144, -0.002839381974252757, -0.030643348542349756, -0.03647396442322757, -0.01713860935101393, -0.0640431580446326, -0.04693749023162751, -0.05250869464938473, -0.02402150961868949, -0.01864800129570528, 0.013806097180519863, 0.04121836340759464, 0.05766644695327099, 0.0619779605499438, 0.0770034094189895, 0.1054906703360568, 0.10115761053315425, 0.12605056022219588, 0.09038705446451628, 0.13354085346493544, 0.12460496717255853, 0.14173870468101651, 0.14881897863809415, 0.1464732035608199, 0.19038024594467928, 0.17936314473658288, 0.16729809250425154, 0.18233023190931752, 0.20423323084804978, 0.23501401267953018, 0.26843818848495565, 0.3215181909396636, 0.3436122385757337, 0.3517099823386185, 0.34204099395933135, 0.35664934876467963, 0.3631869008200154, 0.3885792059469986, 0.4059587180399881, 0.38329856881193103, 0.3565038991488845, 0.33999794249143905, 0.3787792853190933, 0.38843183443246965, 0.39544168339195784, 0.37529880779621194, 0.3741115824173354, 0.3665414114229731, 0.37983289418158733, 0.41476243222859455, 0.4286961123813127, 0.4282807672608376, 0.42333533132637957, 0.42948010882765325, 0.4393709466625294, 0.4420931919805983, 0.4380217146463466, 0.4585889464876405, 0.4618111251341154, 0.5061112181459272]",False,0.8000,1.0000,0.5000,0.1000,0.2000,0.0100,2.0000
41,nogo,Correct Rejection,0,2.0000,"[0.0, -0.0037273816635281813, 0.005130256821684613, -0.006436022509629396, -0.007799039810791937, 0.0013286549241786601, -0.01504889583989211, -0.003702804934206605, -0.03983991921335623, -0.03940817610142025, -0.050520051076498575, -0.059091618604634744, -0.06967699940267215, -0.07726587059101898, -0.12445388644132686, -0.12325765172299871, -0.14325471496952924, -0.17749346649526554, -0.1832965949151812, -0.18422089999968266, -0.1743364559394468, -0.17134724305024465, -0.1368902383766477, -0.16824927950825247, -0.20090197490208817, -0.23286139087648244, -0.2902342801090429, -0.3290773176925803, -0.3208100365593803, -0.3184945914126871, -0.31859591051224656, -0.34261977736560334, -0.3242733987406854, -0.37149141245513667, -0.40710074029735244, -0.4111955394818786, -0.4264329623886018, -0.45029557501893097, -0.4621850651796287, -0.4698624533085698, -0.4707268966968682, -0.4508697283836307, -0.4566146738351524, -0.46180572103684203, -0.4420905028511776, -0.4187158791503978, -0.4553296569859832, -0.45148935767995313, -0.49037859442726395, -0.5024933693351131, -0.4835007927304047, -0.49796055617928814, -0.518973042525642, -0.5377521964461498, -0.5456040938858222, -0.5852159563858971, -0.6033084517713292, -0.6297309029851194, -0.6413440435282131, -0.6270174626243596, -0.6444840234374729, -0.6416312660438596, -0.6636201156314937, -0.6438253518121595, -0.6236144202835607, -0.6213455362857119, -0.6419725249105753, -0.6877130153803114, -0.6955584559572403, -0.7059341441172442, -0.7447105269167233, -0.7196210470955329, -0.7356781860747285, -0.7343412515284795, -0.7146113577630759, -0.7347068498644882, -0.7249277303970612, -0.7361377426922189, -0.7376206555621982, -0.7725639102357017, -0.789146885236834, -0.8070457780774585, -0.8107000915005887, -0.8048484665108128, -0.788907643875112, -0.7861810150861751, -0.760222817367015, -0.7594988497716268, -0.7687806469941685, -0.7513655730538183, -0.7016344125719197, -0.7372529938972162, -0.7429602493497102, -0.7560264858613684, -0.7699008626279084, -0.7965169829185422, -0.8245705464049097, -0.8549292236099858, -0.8485306342045627, -0.8547356566643173, -0.877908228629956, -0.8736185623396377, -0.8902675402883676, -0.9293701946042567, -0.9407618668355385, -0.9399685408535604, -0.956541223834222, -0.9754820425105245, -0.9709928766100655, -0.9571581056132553, -0.9677700539879934, -0.9244266676973508, -0.9120332361909764, -0.9044869371921416, -0.8871223555298635, -0.8922314615935475, -0.9093619668774227, -0.925089853088053, -0.9642594085645516, -1.0086380528188925, -1.0464542319208623, -1.0291156507429002, -1.0523318941669648, -1.0760206915135733, -1.093691302314298, -1.1318587618407598, -1.1149936688947069, -1.1185255299804893, -1.1322334366307283, -1.1650691607872738, -1.1628041990705524, -1.173045798842366, -1.1839032291932972, -1.2046479921249515, -1.2149410080789709, -1.2297778651585762, -1.2576897893735715, -1.261229647363193, -1.2655345203352035, -1.293013251281823, -1.3155063044583115, -1.3340442899986475, -1.360711136725112, -1.3766953471689978, -1.3858221493758027, -1.4026093803997655, -1.4187456302551678, -1.453448498741795, -1.4903153093013954, -1.4796182926539136, -1.4946328183660205, -1.5184615503542263, -1.5062158966025143, -1.5255270100114813, -1.523149050102353, -1.5339245066691816, -1.5293862151441289, -1.5733295404411596, -1.5679716472360807, -1.6057725976508033, -1.624218328245855, -1.6647286544495266, -1.6936895657567796, -1.7235177651782154, -1.719799472934574, -1.7215456877101718, -1.7529847532167224, -1.7686258946225042, -1.7994687458406826, -1.8140633061408171, -1.8085381305873691, -1.850429828703158, -1.849796025992964, -1.8391878460745192, -1.8465731681379176, -1.9194489854562937, -1.943713541783992, -1.9623732192157421, -2.00452432168254, -2.0178863240332485, -2.028089084853582, -2.0593149726139792, -2.049706800862393, -2.0240895850956564, -2.0237684461272485, -2.017205189520308, -2.028222463447349, -2.082085430869634, -2.0845712037089013, -2.1009239819649523, -2.119373822859677]",True,0.8000,1.0000,0.5000,0.1000,0.2000,0.0100,2.0000
42,nogo,Correct Rejection,0,2.0000,"[0.0, 0.003007974216692716, -0.0014669961854439978, -0.013797833306665931, -0.042640438938506504, -0.047784561174259235, -0.04287815560017168, -0.07335512879412683, -0.05669813434368516, -0.04185839537455599, -0.046646327950217885, -0.05013959672844478, -0.04433777378792039, -0.0482181949518065, -0.07772873095408683, -0.07838568303422233, -0.098439083350593, -0.07902321793037698, -0.08324685609276147, -0.09089816172944018, -0.08677493474986941, -0.12336773574246737, -0.12984922496453294, -0.14732794674385383, -0.15357569745916563, -0.15073508240195704, -0.12599527453077383, -0.1352895558482235, -0.11832878208581796, -0.160911234400698, -0.16898433728000165, -0.16898989540700526, -0.15547089500483302, -0.16490779104136222, -0.16195780063396822, -0.18088958790269466, -0.17400364815723718, -0.19138766845861543, -0.17912791969134326, -0.2219152258318081, -0.2209566872957106, -0.2377039982150898, -0.24133487564055195, -0.23936631619648394, -0.20385105832159361, -0.2173486050116304, -0.2389269403501267, -0.272747345744125, -0.28138479027251295, -0.27289197198823184, -0.284652502469042, -0.31048726523321457, -0.3189662548296293, -0.29707709460394277, -0.3056391473065321, -0.3142593407268382, -0.28965582616430946, -0.30800639560582643, -0.30636668346000206, -0.27319001243754526, -0.29888899594614055, -0.28977944787180365, -0.32712577882692784, -0.3215345284797096, -0.31783530289018785, -0.29620770195413515, -0.24727929481837882, -0.25749316232270836, -0.25605181513170855, -0.25790330738859474, -0.23624640238750855, -0.23147269940361195, -0.23617403563480527, -0.24092863114723817, -0.23022232441562218, -0.22293647198801342, -0.2460536168630057, -0.23194198757638468, -0.25367146225700665, -0.3188718000049853, -0.3105296688439719, -0.28530907958491725, -0.30194984733967917, -0.28874387335135787, -0.2665542314995636, -0.26741322345464746, -0.2609382708776847, -0.2552005304631303, -0.2950148655112604, -0.31641752057915085, -0.3395947507275134, -0.3466334066402034, -0.34371674171819827, -0.3574427830117299, -0.3479942517160752, -0.36628599601666006, -0.3669698232067713, -0.3738372881693319, -0.3949472860020594, -0.38803314319847626, -0.39986886262019755, -0.41976741968308745, -0.45077191424899643, -0.4784712703237934, -0.4743147139227966, -0.5103324188694498, -0.5036536938499859, -0.5297301027365969, -0.5478748561977003, -0.5616761871457919, -0.5741043997883397, -0.57758576075189, -0.6011458678375906, -0.5901227546974556, -0.6037335446447158, -0.6245188386261721, -0.6647433065093983, -0.6751845906943582, -0.6797155558862418, -0.669274909990867, -0.6758895119775865, -0.6982269169565377, -0.6817623393810727, -0.720384740916543, -0.7218960135657273, -0.7507948602659724, -0.7478864240088288, -0.7657194797901583, -0.7812157132412418, -0.7953829541166613, -0.8055478410270903, -0.8110898876070245, -0.7928747008961221, -0.7856060829397639, -0.7822975638084682, -0.7998947789068663, -0.8009682136158706, -0.8124675166717261, -0.8177414624810984, -0.823984520891684, -0.8471146759015084, -0.8675033158304107, -0.8921113768263312, -0.9097579166842236, -0.8865761457852535, -0.8884720915870521, -0.9075767392800768, -0.8976139981582408, -0.8900022087987332, -0.8984023155376683, -0.8913039883553672, -0.9326336306102256, -0.9527340666421664, -0.9870441943808336, -1.0139120441462328, -1.0361725124433867, -1.0519551078310547, -1.0554235166234636, -1.080374730919206, -1.0846545393426432, -1.0665722922298455, -1.0427235909697636, -1.0939777957202927, -1.1174888392466973, -1.136088916204875, -1.1085407207130014, -1.1365773048465782, -1.121638282087793, -1.104243465439063, -1.1009747395806708, -1.1189385457173364, -1.1419365604678846, -1.15313995277648, -1.159047598783764, -1.1340772957526266, -1.1252958135866895, -1.1319742507911628, -1.130118717052696, -1.1307138331358413, -1.1625708238514725, -1.1890510107264927, -1.2159316014166446, -1.2116840089514382, -1.2404030215595576, -1.2844295138376878, -1.275319206687537, -1.2893307612770113, -1.3233579877878472, -1.3047347755236542, -1.347626848619481, -1.3480217092693623]",True,0.8000,1.0000,0.5000,0.1000,0.2000,0.0100,2.0000
43,nogo,Correct Rejection,0,2.0000,"[0.0, -0.005194364978682503, -0.011603467983946895, -0.028089202823646575, -0.042751877222063264, -0.07985194049979959, -0.10596820850368216, -0.10977992892401142, -0.1313745821668405, -0.16269347921876787, -0.19291939261431895, -0.20671663704427876, -0.2132348540650703, -0.23060556958930528, -0.25924969624684174, -0.2686411855092078, -0.27567918220489446, -0.28294146705388207, -0.2915695148715756, -0.34836261760777704, -0.37650421481104696, -0.3699633265617811, -0.39230763952357495, -0.38746402199930896, -0.39847734840129156, -0.4339632424764717, -0.44660150786864106, -0.4612298675594571, -0.4667134113475685, -0.47416538174519757, -0.5018856164470432, -0.4844802001125287, -0.4821334650443469, -0.49847079894626206, -0.4949562005832881, -0.5403040593057111, -0.5730372487292432, -0.5978952205286914, -0.6194111418808085, -0.5914299170802423, -0.6033474311950778, -0.6091816488131211, -0.611089537341277, -0.6075247037192292, -0.6535064961149882, -0.6554614327759712, -0.6448668447958782, -0.6687265757296433, -0.676655310697931, -0.6916368296457727, -0.6918800075642465, -0.7009423899668716, -0.7079729831085633, -0.6771452699933044, -0.7063467664489633, -0.7179242291738789, -0.7073427646788956, -0.7139198562808041, -0.6941449576290507, -0.720007422724602, -0.7359506797031152, -0.7784440500342312, -0.754574547071545, -0.7505903958387403, -0.7614111120800777, -0.7465209496321157, -0.7822129566608393, -0.8031402862651313, -0.8031605210705296, -0.7984857397007177, -0.804707974628167, -0.7764359713806418, -0.8099191871835109, -0.8107549590103443, -0.8212040838336024, -0.8136186478618394, -0.7937928004284366, -0.8229475582422017, -0.8616908090988538, -0.8396207239928137, -0.8867407517856709, -0.8988335146609073, -0.8919664177513951, -0.8908470039194627, -0.8966593546495584, -0.9060536084701365, -0.9002023778219245, -0.8913412661272178, -0.8996484699840445, -0.9038778433648366, -0.8962990034380672, -0.8616031893978904, -0.885135696123058, -0.8520251293141978, -0.8611010126079115, -0.8583167836217022, -0.8663887219001716, -0.8725183140186454, -0.9146429749986936, -0.9431170274676288, -0.968644405325285, -0.9312089999560647, -0.9255822789485135, -0.9502895146123667, -0.9370734871800306, -0.9327769529507257, -0.93806690847373, -0.9759003105485751, -0.9941747774737237, -1.0147461874376562, -1.0188431516624827, -1.047374310301285, -1.0563539508919217, -1.0305649553730154, -1.0314069274496318, -1.0498390826861288, -1.0402900094163117, -1.0702411211818381, -1.0886695891416047, -1.0741577666498736, -1.0926309810067247, -1.1253098169025082, -1.1341889792785078, -1.1326381361458568, -1.1504355271389881, -1.1716340765845694, -1.1752549556341512, -1.1605165438611544, -1.165907863558925, -1.1983421891276071, -1.2017770199863882, -1.210683309874386, -1.18756520372263, -1.2443953314035858, -1.2468459067889583, -1.247383183937964, -1.2541607850746104, -1.2823743857585823, -1.2789994386850667, -1.2851488487968903, -1.3080408528351617, -1.2987380076541624, -1.3051246160031542, -1.287987004933709, -1.3220848734992694, -1.320472442568581, -1.3172511840466674, -1.3063032661996605, -1.3501140735869137, -1.3212580629165762, -1.3083585741589283, -1.282861399225571, -1.2973876797867623, -1.3191235656641982, -1.3194167559645806, -1.307117800392873, -1.31671063985448, -1.3590949123156426, -1.393909869022034, -1.428119651117827, -1.4208709612663508, -1.4698146477506364, -1.4679398089141191, -1.4658560133001488, -1.4529090815074561, -1.4215696419060853, -1.4382668181279574, -1.4374606889542831, -1.4416632912799885, -1.4566468073085301, -1.4489201977732398, -1.4468357350878644, -1.4578502622561471, -1.4735643065590789, -1.4855317161092476, -1.4461018795401606, -1.4389656743640418, -1.4250459704330527, -1.4429049548136286, -1.4630317547944214, -1.434719985883666, -1.4382458645554066, -1.454479836912271, -1.4330306374017308, -1.4587460848749418, -1.4617575720268514, -1.4498438522917256, -1.4822062229839317, -1.516110363291293, -1.5390858717037614, -1.5254250130289304]",True,0.8000,1.0000,0.5000,0.1000,0.2000,0.0100,2.0000
44,go,Hit,1,0.5100,"[0.0, 0.032651951167253654, 0.04956046493643429, 0.04680217034148762, 0.07204990517087856, 0.08928980005787515, 0.08418688319614952, 0.11395712163473826, 0.12310033351746416, 0.08992214947806368, 0.12130625792065233, 0.14088522845113768, 0.15987099397734947, 0.19086280134418446, 0.17598257414075255, 0.19091967691771541, 0.21388625696627017, 0.21030913335156445, 0.19081481043506998, 0.20509474750303056, 0.23065088508419013, 0.24098571512853234, 0.25105709055231495, 0.279200650071278, 0.29202574898306705, 0.2993905750258453, 0.34838612981281203, 0.33131458679242953, 0.3303868267641571, 0.3796678992001885, 0.38137857395084673, 0.35192991522858, 0.3282006032632144, 0.36872124979604703, 0.37257740793012334, 0.398634375420048, 0.41052529433582857, 0.424965143499872, 0.4396936883902532, 0.4605178980270141, 0.49009128698133475, 0.521684923679386]",False,0.8000,1.0000,0.5000,0.1000,0.2000,0.0100,2.0000
45,go,Hit,1,1.1800,"[0.0, 0.021466960417663463, 0.01736967552171985, 0.025431699763557532, 0.06768649928204448, 0.0523111333846084, 0.05897662326499412, 0.09652992463187637, 0.10183977045111228, 0.12741985379307655, 0.12405703016406269, 0.13241966792793483, 0.15794533858615237, 0.1674546228747088, 0.1625352359723562, 0.14713048821465793, 0.14629832997371767, 0.1294477591555341, 0.11459801115866676, 0.10014086975765363, 0.12143320936477821, 0.08963864275015579, 0.09295231494608919, 0.09948514623362596, 0.09899404988702018, 0.10687786067995618, 0.10966961547599668, 0.0950728517355535, 0.06569996973803827, 0.05771727715316506, 0.08435060422149464, 0.08737882644533129, 0.13432271946907162, 0.1352276412845016, 0.1531118085352081, 0.13072092574524963, 0.1257851350464806, 0.13588361145056468, 0.15256894099629664, 0.1505627406728105, 0.14597079197673865, 0.1662805629632686, 0.14961919337191204, 0.17087981699397833, 0.142695391730292, 0.14685183276116576, 0.16687541377908488, 0.16015601012495506, 0.19042466862053903, 0.1743093903773998, 0.1901800159850608, 0.17444593953350684, 0.16840981219262938, 0.1520056234522502, 0.1733257608287314, 0.18831222163275027, 0.15349520575271855, 0.143307291348034, 0.11023160820726574, 0.16446427703745894, 0.1644503434204595, 0.1734654764215532, 0.1874440250179932, 0.18826103947293607, 0.1725406975710695, 0.14989421980005468, 0.1308914252555352, 0.14430240416247506, 0.17862156405651655, 0.22045078583832706, 0.24370357794880854, 0.24556953848532756, 0.2337703287659286, 0.2744028056791907, 0.2938696170895239, 0.3026212182043745, 0.3082948705421934, 0.3213684591352619, 0.3538654831675866, 0.3886227441293342, 0.38993430752162006, 0.3727214067105994, 0.3972842675244018, 0.38686059761116365, 0.40033321956341256, 0.3790818977682508, 0.3534384253283189, 0.37780929242511185, 0.3719814889655059, 0.3725154198496875, 0.41570302000054127, 0.4051698042912953, 0.3538231697023973, 0.3613483787717388, 0.40216886562913257, 0.4360366403262379, 0.4202807071221637, 0.4572415216689268, 0.4489632003336596, 0.43371080118146144, 0.4298164957938588, 0.4731821086508838, 0.4602891137025458, 0.4923904956961061, 0.4836662866786065, 0.49772040950473767, 0.48364039911540835, 0.4941258426992491, 0.5137437702759047]",False,0.8000,1.0000,0.5000,0.1000,0.2000,0.0100,2.0000
