trial,stimulus,outcome,choice,rt,trace,timeout,w_s,w_n,threshold_a,t,noise_std_dev,dt,max_time
0,nogo,Correct Rejection,0,2.0000,"[0.0, 0.0016862649569801321, -0.02474238877570828, -0.023348017347662793, -0.047115517731631695, -0.03406685757995778, -0.05418911514274279, -0.0396651890483793, -0.04377477619835195, -0.06782393886574711, -0.09204870091355623, -0.09139156365098927, -0.10294842996423968, -0.09034526532504394, -0.07587515509648296, -0.0872473088386937, -0.08885430691569815, -0.1126502439238112, -0.14165896413581805, -0.14446953969541246, -0.15716569723588042, -0.15843058306565877, -0.1535360708637888, -0.1634581790590034, -0.16375448942002702, -0.1693705206433564, -0.15849085853639033, -0.1793864804975952, -0.18646459498886345, -0.20683870129658732, -0.2053972296161928, -0.20961516986289522, -0.2202555169563757, -0.22137592518569765, -0.26761082519966883, -0.26695222932803875, -0.23091119617291675, -0.22958723898034145, -0.22078485825449734, -0.24863676385838285, -0.28735678860915187, -0.297278855566184, -0.2845339590982356, -0.2740596440878761, -0.32156348937039203, -0.3245907207817093, -0.34388917726982204, -0.32246314099914525, -0.3295316275067978, -0.32278652186424894, -0.3588125644454776, -0.37663273818404064, -0.4070896462505277, -0.3965590298958838, -0.4306199045257219, -0.4177189247342224, -0.42658022903900833, -0.42281156624734595, -0.4491604607280349, -0.47238274122475177, -0.44309166446770165, -0.4141253274058516, -0.4058399415688164, -0.40601492452280197, -0.3903701157907655, -0.3690535031548725, -0.3525978333253379, -0.3446683547761745, -0.35534155648532906, -0.3349882466761019, -0.34165736219972076, -0.35457520346551924, -0.35282903079406136, -0.3674435124621913, -0.3727550264327634, -0.3969129031178383, -0.4035404769064001, -0.39375539740972676, -0.39537865511046955, -0.4186723725908467, -0.4183466845577817, -0.3927359055104125, -0.3747125100136769, -0.3876242789794705, -0.4161613327768567, -0.3916350091583355, -0.3984073676285776, -0.3807804547778868, -0.39684669384097865, -0.39633496276488284, -0.3832775899613943, -0.39039376298008915, -0.3686533108734719, -0.3163678174283079, -0.32548768892630203, -0.31355039990428873, -0.3371412623370808, -0.3457164569189917, -0.34497611036620257, -0.3504912388558611, -0.3703562331520893, -0.3639550220483815, -0.440038638776137, -0.4427450434840117, -0.4269532373279179, -0.43289918680630884, -0.4117299728466981, -0.3990151722692135, -0.41138885453153695, -0.4147236894703182, -0.3873860018536629, -0.4163268570356346, -0.44733725433174265, -0.5081585792214578, -0.5125745812839121, -0.5235298545449658, -0.5297468413231625, -0.5358980886679362, -0.5100278855422682, -0.5168233827876555, -0.5323575038640265, -0.5413322030703263, -0.570397437374632, -0.537151345117858, -0.5891946812934352, -0.5688870871068538, -0.5795609209223793, -0.5662430160529525, -0.5712132805343504, -0.5627310088421652, -0.5698472468456107, -0.5818735473241015, -0.592473744166101, -0.6000579395070806, -0.5766586680321539, -0.5597762335351603, -0.563964155832019, -0.5759155088407728, -0.5680993999502187, -0.5846278480436934, -0.5784370732001192, -0.5856488622689121, -0.5851687127475836, -0.5765315940224728, -0.56832367088334, -0.5879819242983902, -0.6091484708984977, -0.5916982532430128, -0.5574040135767085, -0.5568327708807311, -0.5562507541907931, -0.5777634294487215, -0.5894711566334847, -0.5971370581764499, -0.5541495311434099, -0.5926937487912368, -0.60264121890992, -0.5835882587075601, -0.6125859622900383, -0.6123576688983371, -0.597997438252558, -0.6006769757255124, -0.598651418193224, -0.5956539510597905, -0.6064238542803234, -0.5730751312736461, -0.5632270847421722, -0.5677813383225232, -0.5714053248685287, -0.5891434232852083, -0.6324535305762664, -0.6527444124635864, -0.6503407992762413, -0.6614911276644779, -0.648026248914565, -0.6465737884798636, -0.60754386712039, -0.6072581372255634, -0.6555052604081242, -0.614191688049299, -0.5977036954596399, -0.6150997772357119, -0.6154978002581332, -0.6419108073933716, -0.6430581970338155, -0.6685296921078597, -0.671326425681625, -0.6781111888579995, -0.6556510709323633, -0.6661630018777064, -0.6415547538114211]",True,0.6000,0.4000,0.5000,0.1000,0.2000,0.0100,2.0000
1,go,Hit,1,1.2600,"[0.0, -0.007861654478333664, -0.007590312962672306, -0.011301120383372752, -0.005490400813839104, -0.0168036353298369, 0.0030569368098174766, 0.021491443156952682, 0.06280387261331205, 0.0812640840796918, 0.10808213192533073, 0.12445234634151295, 0.10485651478622174, 0.09734644892496351, 0.09387136415402353, 0.105155088157544, 0.1327551034767951, 0.12566106482614176, 0.15679280248249833, 0.13174815314227462, 0.08647916067147707, 0.11259985082152078, 0.13140169412936076, 0.1572242865514309, 0.17462318915385386, 0.1974733825771272, 0.21898756062681152, 0.22271325486842494, 0.21052343638890653, 0.19488016318702664, 0.20371597605547126, 0.21036665276379474, 0.23819346751851447, 0.21610291135097207, 0.2062665343032605, 0.19675415030036883, 0.2117986110417951, 0.1680947676639865, 0.1797443908923299, 0.19982960941792643, 0.1728745698178395, 0.1961711447032059, 0.20997744464149845, 0.21287320032033172, 0.21295216362608138, 0.19989285721997846, 0.1921949264775974, 0.23135435071662874, 0.24161129580451887, 0.2297380589638754, 0.22628090886666066, 0.20968433554362176, 0.1964109719898909, 0.1672235708425533, 0.155707044532016, 0.1461213107461395, 0.177098873100381, 0.1844184205027802, 0.18754234146784582, 0.198519660384497, 0.17590230704619944, 0.19348080388429462, 0.20924520979946998, 0.2272142240903436, 0.2397164304956867, 0.25856953603198474, 0.2490921955557982, 0.2558691217720632, 0.30039845353139216, 0.29421253102588735, 0.311883420519644, 0.2841088867092818, 0.3080481817839142, 0.30702045818349943, 0.3257824968517799, 0.32463008144349104, 0.32796488418245007, 0.29888854116522046, 0.33079296484400356, 0.31541127210111064, 0.34069061290115976, 0.3644626284953684, 0.37769549691278137, 0.39748036705891526, 0.3931395497355428, 0.38871320474488874, 0.40235121831573356, 0.4180947231554692, 0.42337213196948403, 0.3958886163972217, 0.37569625863620826, 0.3958126038549823, 0.3674685412369698, 0.34243109909148023, 0.3409287528610146, 0.35039951772958394, 0.34293164851533, 0.31920727125400417, 0.3473548044796403, 0.35293092731218517, 0.3716257896509307, 0.39358237504990484, 0.4222633390301015, 0.4172866045298357, 0.3817142618000792, 0.3783103788863507, 0.38380467658868356, 0.3908128883815878, 0.4392815354618636, 0.4625855520359571, 0.45917664964379384, 0.46375377426552766, 0.46433155308702634, 0.48795853477571327, 0.4997220204686222, 0.47995715247366116, 0.5132861936443176]",False,0.6000,0.4000,0.5000,0.1000,0.2000,0.0100,2.0000
2,nogo,Correct Rejection,0,2.0000,"[0.0, -0.017905885648913857, 0.007055768068049476, 0.05048251473201175, 0.03175833649812698, -0.00029955201176719293, -0.006732363702728381, -0.005672336981940162, 0.017498920538514803, 0.0745076637079162, 0.0804519847608145, 0.04833170323156882, 0.03145369100486556, 0.02469073642500641, 0.08707043383317027, 0.05969792939312183, 0.050462012411705816, 0.03026538864309789, 0.03693616027725741, -0.019690017813991607, -0.03363704199726007, -0.034042982470389796, -0.016841008694286272, -0.03900385041103244, -0.022970595349599297, -0.029041764047909664, -0.03935777447545973, -0.07658706956193594, -0.08076524618074721, -0.09798583279469908, -0.10771809206441361, -0.1393156664935729, -0.1332797691928754, -0.1051454086647274, -0.08251395978232626, -0.10507756299437529, -0.09414658462554636, -0.09065753731786785, -0.07794851203700817, -0.08005640814096854, -0.0976493973715313, -0.10556758211234965, -0.06777648787524243, -0.02729217779988563, -0.050712397693327645, -0.05403164071542493, -0.0768095760765917, -0.07110007781921805, -0.0996116502074558, -0.09734922392649392, -0.1073003658402796, -0.12061784195965032, -0.12953193750114503, -0.12238079377447676, -0.1353962997705662, -0.13650991622136957, -0.13768706045889512, -0.1133253908390088, -0.11412202135058155, -0.1420185159436529, -0.15341281185631203, -0.1516428011803138, -0.14898396304845837, -0.13180989382642458, -0.1302389625085587, -0.1560415760213051, -0.14350255404289505, -0.09911154853277404, -0.09852115282942793, -0.11510582964518504, -0.1296973967291699, -0.07088456206678057, -0.06378353427818131, -0.12395075896890238, -0.1502446807017664, -0.1437845948753632, -0.15097375029888865, -0.14089655247000465, -0.10948391731289175, -0.10355503433085998, -0.10236772102083971, -0.09730314478730884, -0.08597020776498841, -0.10873306465475097, -0.13801377690792732, -0.12653286902372138, -0.13189417548947652, -0.1605796735635909, -0.1766000136923656, -0.17943320325933332, -0.1806094980199893, -0.15983864630451322, -0.19795262976116612, -0.17395569959804477, -0.19222338866895372, -0.18265447038363292, -0.17067329830355882, -0.15852514779179863, -0.1874682276485387, -0.2211050412298254, -0.21647992086976686, -0.2028647224646968, -0.23690811856691338, -0.25211561300098967, -0.2667182815894988, -0.24864293198896886, -0.2590201359379812, -0.2546292744170262, -0.24566199426812754, -0.25217379151781977, -0.2795559945172128, -0.3171071366685172, -0.3084620402479728, -0.283573541813439, -0.2974000922821514, -0.3074356178932036, -0.3504073598513321, -0.34364934169150385, -0.3611156330523553, -0.3481176789647347, -0.37792196863251476, -0.36744894610001194, -0.39204951289795353, -0.38468539831485715, -0.3767779630290774, -0.3901727844032969, -0.3679615148213464, -0.3709101844761229, -0.3370570404361339, -0.31434895754344017, -0.30018034443000846, -0.31905593192369147, -0.3171368172882827, -0.3274294817287442, -0.3721040368012116, -0.3755769070372896, -0.400962301247391, -0.4151361962567239, -0.4103494126005986, -0.3947228472607562, -0.4255641096510953, -0.4395796227653682, -0.4475782580837784, -0.49070588770493384, -0.4677514980189852, -0.46001999148116607, -0.47636544587616253, -0.4734452589756142, -0.45075476288752453, -0.4516339515091099, -0.48906217151438447, -0.46829470055811345, -0.5055198272097208, -0.49920783693024384, -0.5558776720308153, -0.5423404904913938, -0.5423492459649915, -0.5670788193388826, -0.5877867818923515, -0.6046564031213734, -0.6197656951087744, -0.6012222542635319, -0.5966385330027701, -0.6061941059157792, -0.573799985862336, -0.5868676917240356, -0.6188106730606096, -0.6511533305332712, -0.6181237876225013, -0.6170445417509491, -0.6047328976900505, -0.607159394517007, -0.6116783663800206, -0.6425439580580617, -0.6464938381079508, -0.6291915993485426, -0.5926259652027909, -0.6124111661810246, -0.6202136189083677, -0.6210186281947059, -0.5958519782244823, -0.6076913253072093, -0.6307296305158713, -0.6570758458213789, -0.6808067033098552, -0.6552827979177933, -0.6323366905496368, -0.6342854951907009, -0.6504329101358823, -0.6662323086585461, -0.6656889215011847]",True,0.6000,0.4000,0.5000,0.1000,0.2000,0.0100,2.0000
3,go,Hit,1,1.0800,"[0.0, 0.006281637294865011, 0.04782351228566503, 0.04495885445374568, 0.005610072822848103, 0.0028812486678082387, 0.008621177118881485, 0.046261512714952296, 0.06547262422549692, 0.0742669604334606, 0.04507343562766535, 0.06799305872787344, 0.0751252502687169, 0.05836490644272966, 0.046322562580085026, 0.0894723224213744, 0.09360267613558255, 0.10086736029606427, 0.07905141642986385, 0.06650043929416605, 0.06351916420283879, 0.056158010851954175, 0.059699143009924564, 0.04989847515389401, 0.06054851975642158, 0.04304087366276206, 0.06396949301536223, 0.08545323758148372, 0.08374604166766787, 0.07897127036981981, 0.07406107404768247, 0.061145613281573065, 0.030266041778451963, 0.05205915955711664, 0.05348134813358456, 0.06444337418750719, 0.08375374322530704, 0.08899105580518053, 0.13094637547368065, 0.15785285380057068, 0.1776902619653339, 0.21180001469351428, 0.20729377953199754, 0.1652774994497082, 0.15875394211347144, 0.16485679983576934, 0.14299662358006415, 0.1318116619275299, 0.13308324553103948, 0.11684410012573027, 0.1219003702541168, 0.1682090530051276, 0.14219869572590263, 0.1477678013608719, 0.09845473659007103, 0.10578876928611256, 0.10166159833384986, 0.12477342999391416, 0.1125637507791089, 0.13143869471278175, 0.12472925257940445, 0.13025761458136165, 0.12564929748722195, 0.14430245114982526, 0.15386972032460713, 0.19435148478599706, 0.19358496764744543, 0.19856337161249374, 0.22332941679541343, 0.2326531277670197, 0.248149304387699, 0.29504302593078613, 0.29377289462802253, 0.2883120231616517, 0.28987966351570305, 0.3499881893034724, 0.3376869724936519, 0.34882729697782316, 0.37968790675137687, 0.3794432816546345, 0.3715405252508193, 0.4078798795757848, 0.4085694076833835, 0.43090195743523463, 0.42472781326622994, 0.40794888138690416, 0.4365327183378498, 0.4414878431868409, 0.44143905275666756, 0.41845734810792806, 0.4327047198496138, 0.4126882346061703, 0.4117869984654709, 0.4168763604241051, 0.39878214738669077, 0.426826201409395, 0.4447187883866806, 0.47823523476139806, 0.5002964260193165]",False,0.6000,0.4000,0.5000,0.1000,0.2000,0.0100,2.0000
4,go,Hit,1,0.7900,"[0.0, -0.0005882773935640502, 0.012888787056055957, 0.04955750818487536, 0.03639329238837787, 0.045136703210882215, 0.03969169786060872, -0.005404278366729791, 0.010558559956540498, 0.028620889626221103, 0.059814416099483514, 0.03640420951012676, 0.047871426585109636, 0.04259198023177914, 0.06345086564380162, 0.052778357351288205, 0.06756691078024737, 0.10850293253436692, 0.08006834507599545, 0.07723615292672709, 0.0667312596155033, 0.1076038702331917, 0.09066770056581878, 0.10378872355469364, 0.1469910900386522, 0.16290837118949586, 0.15851878302024047, 0.1478204473492252, 0.16292448328726888, 0.1595721144279145, 0.16435374406602407, 0.14043699726139805, 0.16432995390680094, 0.18306464504759487, 0.1969407236630007, 0.17036793611857112, 0.15357285657992234, 0.20140593798960443, 0.20075386763369926, 0.2198305794711268, 0.22810769747511164, 0.24408436407168854, 0.2530160010111592, 0.27832515872630076, 0.26627970341877055, 0.3140494836372938, 0.3211986227044606, 0.3201413508838037, 0.35491347825552866, 0.3900855264534304, 0.3802489105487199, 0.3815294573778228, 0.34649843386009294, 0.3477140264137726, 0.3610812875701448, 0.35208374411092214, 0.3453324780675218, 0.3460058295316802, 0.3564941820282887, 0.35754221084999865, 0.3996713073629281, 0.4030388126132073, 0.43357946641670886, 0.4425634011858992, 0.4640369556482461, 0.47610020631120137, 0.455732151301556, 0.45532895668856116, 0.47495192622061766, 0.5009998498101639]",False,0.6000,0.4000,0.5000,0.1000,0.2000,0.0100,2.0000
5,go,Hit,1,0.9900,"[0.0, 0.02975536845565445, 0.041796531860729014, 0.037651891760313944, 0.04181475539752114, 0.03695774138646597, 0.03831530996331233, 0.044630226379338105, 0.06266302470748004, 0.03475279872679438, 0.041293117028013006, 0.04613545908050424, 0.07872176340248845, 0.06519716155217015, 0.07038988505148676, 0.07233295612694468, 0.05179104406283208, 0.0508911190448963, 0.06185055844380431, 0.06459042127948585, 0.061378877436474216, 0.0594841196260953, 0.06292151194004462, 0.07299634200283261, 0.06192463461989315, 0.10512019948745212, 0.15166606650276251, 0.17659208408841381, 0.16799030043324237, 0.20321794304757554, 0.188981288062558, 0.20065661972810653, 0.17470792657249207, 0.1895809631818061, 0.19081501994367991, 0.17676242311479634, 0.16962650194278653, 0.19372287572263094, 0.20620692928872228, 0.21695795901835546, 0.1819202580153813, 0.2196323045303883, 0.19018482983064167, 0.18314554731457003, 0.16637978197658704, 0.17726303269767624, 0.20878103306965853, 0.16819919744486542, 0.18203097634046211, 0.20070062716424772, 0.22248102079555884, 0.23388451710440059, 0.23791961997060795, 0.23526881881071846, 0.28380062897428604, 0.27973946887022166, 0.323159035885886, 0.3444637901551028, 0.37285694407438175, 0.363137424679555, 0.36078966688389613, 0.38772546062705643, 0.3720523388626731, 0.3584103802585891, 0.37898634005475756, 0.3821757769666459, 0.367471196755415, 0.375192611230721, 0.38232520626985705, 0.36656701785742174, 0.36397975508648056, 0.3634107383451556, 0.36748041564842054, 0.39758690976093713, 0.38971374101277534, 0.4014137409785341, 0.3999413211349352, 0.44547343486835334, 0.4529967794884796, 0.4471794702335371, 0.4647512204395354, 0.46594224419161906, 0.4417892073104127, 0.4652419319905864, 0.4397674521348253, 0.47678504868987015, 0.45924649225839276, 0.45492112649840216, 0.4923118997218068, 0.5424321316221884]",False,0.6000,0.4000,0.5000,0.1000,0.2000,0.0100,2.0000
6,nogo,Correct Rejection,0,2.0000,"[0.0, 0.007542771166059016, 0.02229235161227066, 0.010071438024839724, -0.034484084064695206, -0.05914486429608885, -0.07096913792070345, -0.06256262671042447, -0.06899772370259147, -0.07518393066962198, -0.0677432584776993, -0.09792475579199388, -0.09743797176927149, -0.13695026050793863, -0.1645264728835952, -0.15673809594057814, -0.15322435860708378, -0.1494725029829632, -0.18170643201185127, -0.20514525072237255, -0.2213832234408716, -0.20261445807828368, -0.17983965717964326, -0.18082916727093515, -0.21080662260059335, -0.21087275615092105, -0.1933903700693845, -0.20348379666140723, -0.21459606175333754, -0.2271010481419929, -0.24683682117040798, -0.2871763106672723, -0.28910070001326343, -0.2752496860035453, -0.28489784688700864, -0.31025647989362737, -0.3272461971407252, -0.3700376950069455, -0.3555103466143903, -0.34137500291854156, -0.3472118219192756, -0.3253216764525408, -0.352770201817954, -0.32825480558859993, -0.31733446635747353, -0.3404924207745555, -0.338646728360308, -0.3406733896974816, -0.3577522250183059, -0.330150756605851, -0.3309665983178945, -0.3413766591762014, -0.3264141286761185, -0.33952286149774913, -0.34500656387916223, -0.340945869680347, -0.32381871109875254, -0.3394085256711977, -0.3554478244759946, -0.3556467148040161, -0.3889080651309123, -0.4010119558421958, -0.44382153657252416, -0.45883018003691023, -0.43323963544436006, -0.42689663143872647, -0.41926578037451867, -0.41555546532429677, -0.4138636740890394, -0.40910775517997644, -0.40885649776040917, -0.400526133077172, -0.39931279049624857, -0.40017981345525433, -0.3895020737342741, -0.37685570335888025, -0.3857215767257408, -0.33869645413848787, -0.35995590521110604, -0.36567903935092694, -0.3747641124866229, -0.37189875048258025, -0.3881965825682295, -0.41116482552965894, -0.42074515554658803, -0.4252657079307371, -0.394358536828074, -0.4061097623669469, -0.4086299355982497, -0.44693193825204947, -0.46367654511701517, -0.44130874705036105, -0.4692728287217207, -0.4960615554128657, -0.4818066943760052, -0.49566575265446033, -0.523920047013608, -0.4977912326657305, -0.5190169355873022, -0.5303882838058493, -0.5312389277063049, -0.5258512441833285, -0.5046522410898364, -0.5081289739204828, -0.5439185130694502, -0.5609123845159998, -0.592280672171979, -0.5975056429143497, -0.6085183211188241, -0.6219304242508694, -0.6481451994313875, -0.662464314749839, -0.6743729118394199, -0.669732032916479, -0.6620835074237049, -0.6556956618580064, -0.6358618620026806, -0.6551755927256023, -0.6526400899765182, -0.6478455977719341, -0.6226880063086191, -0.6519966802195339, -0.660059170607536, -0.6256105486039125, -0.6149613961803981, -0.6021627823480907, -0.61671135796919, -0.6280655647396339, -0.6322597913961447, -0.6710807850889463, -0.6381088455684898, -0.6760445109693298, -0.6672127720481434, -0.6817593320196379, -0.6772773799275275, -0.6893483424316346, -0.7248325722849054, -0.7289823697428244, -0.7331454216768049, -0.7580712600262527, -0.7647051210673323, -0.7707788722596071, -0.7643533176026216, -0.7886871285951575, -0.8284581977782219, -0.8343658361512477, -0.8385510654181233, -0.8411011429907157, -0.8215297967822706, -0.8262542158836331, -0.81316544694633, -0.7879604678218803, -0.7845575118023989, -0.8043679676244783, -0.8000424894388416, -0.762946382451218, -0.7546396774105383, -0.8017780177302505, -0.8160037989992154, -0.8119066855646933, -0.8215256519411492, -0.8264819591903352, -0.7982458908243544, -0.80667080252968, -0.7930765255707284, -0.7859642420865222, -0.7967655591549615, -0.7982659819813969, -0.8160459443739582, -0.831913018648629, -0.7938102302939778, -0.7942223539232683, -0.8078965704616714, -0.8184009246532035, -0.8050944878180083, -0.8054366247859758, -0.806509977029616, -0.8130908278736316, -0.8164310360945444, -0.7997661775898521, -0.7802778149129643, -0.8253245475216388, -0.8031328177594996, -0.8282381290007605, -0.8443224466533629, -0.8282085175715533, -0.8328002753934067, -0.7899560549645281, -0.7976214064030913, -0.8259929549680551, -0.831048139848107]",True,0.6000,0.4000,0.5000,0.1000,0.2000,0.0100,2.0000
7,go,Hit,1,0.7800,"[0.0, 0.05820036944842494, 0.04564268157734688, 0.013305054604332428, 0.012516260717222245, 0.00486212155609817, -0.002484973544131488, 0.012943038772120002, 0.024520240880102948, 0.031721198368447445, 0.05618095805185474, 0.06795480933881382, 0.08489064257668119, 0.09505344450436226, 0.10776401107423922, 0.12844365098893124, 0.14213705460972711, 0.1590465301459927, 0.13306441615174275, 0.15688888920619343, 0.1416520552850812, 0.1584416046155839, 0.15098868584210606, 0.16804581104394245, 0.19634572263434164, 0.18708991004563436, 0.19483254235159017, 0.24111005507678573, 0.2686440017539566, 0.2686724151440616, 0.2518936122960704, 0.2924088624545247, 0.32529453098152594, 0.35054693425321654, 0.3290017689032852, 0.3518894963716085, 0.35678221975903, 0.3611387417838985, 0.38392673494999907, 0.3403640883182823, 0.3642701779246572, 0.37251575947168797, 0.3499985810216814, 0.36605374611483094, 0.39446440647047953, 0.3889264259737958, 0.4076473758919348, 0.39756587184612, 0.41849326064774317, 0.417311089530187, 0.44473035818159967, 0.44836439568214503, 0.45656996493354973, 0.44384336015382286, 0.4819808806695364, 0.4951183272733398, 0.4926402334551256, 0.4717226328438009, 0.4564890199725616, 0.4547614244681437, 0.46981757187538836, 0.4718165351803602, 0.4512801878924363, 0.49323726726433337, 0.48715978864269205, 0.4775276455663055, 0.44718747512705037, 0.49482100331408296, 0.5101376466524244]",False,0.6000,0.4000,0.5000,0.1000,0.2000,0.0100,2.0000
8,go,Hit,1,0.8600,"[0.0, 0.03420491869921345, 0.02611852080332181, 0.02512560988901442, 0.0519052387444834, 0.06806394239296099, 0.09994235618369803, 0.11322611632463445, 0.10511585980785193, 0.12091829852793688, 0.09643720998539218, 0.09441711644598293, 0.08006822599026348, 0.10016281888796084, 0.08013126416138064, 0.10782982081617996, 0.1088898125567725, 0.1180418254883128, 0.13207141659070462, 0.10886642583105555, 0.11536992656068748, 0.0915959384563591, 0.11722511956694313, 0.14127457149509612, 0.1477848974794229, 0.13415118293031456, 0.15477833448487194, 0.1541378409815902, 0.19111662916463087, 0.17090076823098904, 0.21702743449755985, 0.2012926014772802, 0.20166187614857772, 0.24899255654985175, 0.2680051039214128, 0.24459260712757586, 0.2561552028880262, 0.2525000930589443, 0.26512066789236344, 0.24098183001708579, 0.244683657015031, 0.23471308746988698, 0.23918448162244368, 0.2612258171534583, 0.25645897510441495, 0.23697689397688815, 0.25778498947002576, 0.2505827185675958, 0.26846252062963344, 0.2987423719399109, 0.33651714205400274, 0.32488861009202463, 0.3270933572886254, 0.3344310400514629, 0.3402407228648412, 0.3501413291206348, 0.3509890962967067, 0.35182514331508147, 0.33737353026258765, 0.3391326378855133, 0.3191789528519915, 0.3317388261812616, 0.352560652890324, 0.37884471183047547, 0.3772765626393706, 0.37184051601163415, 0.36063258205650006, 0.35217038778325754, 0.3614244355693704, 0.39935820204251743, 0.43209290393364447, 0.43667127604028505, 0.4709851933785037, 0.4710891026329688, 0.49336733605998684, 0.4870297143381886, 0.5018938483363621]",False,0.6000,0.4000,0.5000,0.1000,0.2000,0.0100,2.0000
9,go,Hit,1,0.8300,"[0.0, 0.019452591255726192, 0.010417601847702383, -0.00805896260891142, 0.0017258507502250046, 0.020896124426347886, 0.02572983942224222, 0.024081635715087465, -0.006851548541280693, -0.005685905093272151, 0.0012252056410012, 0.0005988928164352026, 0.0027677272006498966, -0.005778941119958985, -0.01748336072051384, 0.00022124766056941247, -0.0012943562653272888, 0.012735974683070705, 0.005188584143969773, 0.019692958842709492, 0.06432778480899624, 0.056483894019157765, 0.08051837757828953, 0.10247951360475971, 0.07595556552430738, 0.12802682027344714, 0.16019245081670888, 0.16018325494027488, 0.18906305895790534, 0.1948868588450597, 0.2503675904388779, 0.254322722206651, 0.2711992229525078, 0.28721565983730324, 0.2781484466999628, 0.2802362291846072, 0.3054258721734472, 0.31263351697064323, 0.299341481642879, 0.31389147106604015, 0.3228758546827677, 0.34100189218070337, 0.3621839642521752, 0.3909925474269505, 0.388488530046759, 0.370157210085844, 0.3758714249476525, 0.3958009782272094, 0.38591328290620913, 0.38440252992967266, 0.3896118582216621, 0.38707851725046755, 0.4155642563838906, 0.3995669382929882, 0.3788411116472301, 0.3875582087848259, 0.4118780198723502, 0.42739345375538107, 0.458564925193261, 0.4526118094823125, 0.45634528504632027, 0.480296433920618, 0.4647086513570755, 0.4828704162532815, 0.459947699457707, 0.4480863113622769, 0.4597281789403589, 0.478667500036106, 0.49728221186512217, 0.4832403675098178, 0.49588679220385995, 0.46979386800338135, 0.48686903766798856, 0.5228699149779877]",False,0.6000,0.4000,0.5000,0.1000,0.2000,0.0100,2.0000
10,go,Hit,1,0.7300,"[0.0, 0.015490533840514006, 0.035708670198671855, 0.05146327062778, 0.07340747102305767, 0.08612294905478884, 0.11634156539146809, 0.10736350295566695, 0.12810222060822493, 0.10491163905800177, 0.11512913968673377, 0.13996216766789063, 0.17987432949151816, 0.20435291020221705, 0.2331841739210049, 0.25778600784857175, 0.2791128029129277, 0.24901973694295604, 0.2504623526835926, 0.2521762759125132, 0.2917874169903899, 0.30147991192612134, 0.3151813540791062, 0.3415358919526988, 0.36548569303664874, 0.37069476815091673, 0.38409281101516646, 0.38132740139103993, 0.38885633689004845, 0.3569255592683289, 0.32258137032114725, 0.33822202604946716, 0.35171503776275587, 0.39444622375130267, 0.4020549130556651, 0.3560468947380386, 0.36679418418780285, 0.37072492787647965, 0.3542453811171136, 0.3752404338657879, 0.391671101655893, 0.3966421609426713, 0.41503017424374655, 0.4361179151390087, 0.43293142537653156, 0.433024644591433, 0.4277598006620547, 0.45112759942727443, 0.4393666429017335, 0.41422805370584115, 0.41876715831112876, 0.38517053961186054, 0.41436937823910036, 0.41994240155325635, 0.4177371740956249, 0.4198505691599451, 0.390862545781164, 0.40068564973763704, 0.4310603455295674, 0.42686197640449663, 0.43839662440452726, 0.4565013828536988, 0.48065042256263546, 0.5024178264389604]",False,0.6000,0.4000,0.5000,0.1000,0.2000,0.0100,2.0000
11,nogo,Correct Rejection,0,2.0000,"[0.0, 0.02801207837995337, 0.029424140125041985, 0.0476736812024419, 0.03371935355142807, 0.009495837024890211, -0.00630416997528804, -0.035300212941586306, -0.021026996079703333, -0.021007418135995003, -0.012658673054937035, -0.006939497808600689, -0.00837938282157959, -0.0011600453598465104, -0.023662791136711818, -0.02573713441483707, -0.041324632251190416, -0.022488639518450693, -0.03775646887651043, -0.0240367507307776, -0.01640487890250665, -0.0004674309335938216, -0.002589952300382869, 0.005547447934861888, -0.0005341339493772643, -0.047940223951914905, -0.04990404125913897, -0.025763442813105743, -0.004136922966105121, -0.018281015256673507, -0.06088827556114602, -0.08086616590087044, -0.08281147356374363, -0.05575788419881936, -0.04000160315489813, -0.022869365803906326, -0.044599894873508864, -0.08877104536576236, -0.09669718130692173, -0.07271904332349066, -0.08932046998411551, -0.103970624410969, -0.11223758683562035, -0.06670786949637192, -0.05335929878845535, -0.08145398383994437, -0.0657558014481451, -0.09769402055200938, -0.07998031972841756, -0.06223139048227431, -0.06802963533800759, -0.058050206910641396, -0.055290608554475734, -0.04821975784123866, -0.07309729672866272, -0.09162891466210946, -0.09288701383814996, -0.12455747378712642, -0.11783845013564591, -0.11937649871791409, -0.1430828638359996, -0.1807525309937358, -0.22096845846536275, -0.2534811933908875, -0.23853033902839121, -0.25075788394619825, -0.24186945334820084, -0.21782969462503934, -0.18602542887808238, -0.19109335162914812, -0.1948690202556432, -0.19956634486538316, -0.22450963138894275, -0.22089019107309305, -0.2279234934346695, -0.22815048017816783, -0.26451365564532436, -0.2579939100367634, -0.2742134245948717, -0.2643168749189011, -0.27640925655610105, -0.27492473338419876, -0.23046558486450264, -0.2358434767005679, -0.20202306801902356, -0.22400372919513703, -0.22847984370177118, -0.22184385711722185, -0.23920054168019164, -0.2231118235673131, -0.2146273030452285, -0.21838509408833698, -0.20463508232386413, -0.20877598388256638, -0.21442070549048659, -0.23305753023624268, -0.22788413406918234, -0.21003202632978504, -0.22437850612678767, -0.18386873197788445, -0.17527452282551073, -0.2075330033189715, -0.23514907813446198, -0.22791111206363443, -0.22416509450299038, -0.23742820964485242, -0.26421774351045224, -0.2535303327085652, -0.2557503157938905, -0.27424794632025024, -0.23869933565016227, -0.29643541516232513, -0.2950243822517914, -0.251677451850444, -0.208120317130996, -0.23055704928366627, -0.24070766687118722, -0.25365945042050975, -0.24912007509542783, -0.239961505644682, -0.24307357837778915, -0.22986165347923432, -0.2631390315498535, -0.273662226168862, -0.2915401435821996, -0.2921200841812837, -0.318545254484174, -0.3255365209320481, -0.33891043829778295, -0.36345083232642456, -0.3747710329357016, -0.4021479226482553, -0.4086004539596829, -0.4044866973999137, -0.412211445090709, -0.408185838315779, -0.4224958834912404, -0.38685019996245446, -0.37587468296518867, -0.3520747316597774, -0.3545327507884194, -0.38624544845029557, -0.4005169731752898, -0.4058628989177626, -0.417511922590042, -0.38619302625301133, -0.364253476925172, -0.40629166443458187, -0.4078564695270766, -0.4268004528450722, -0.43042399442795204, -0.4339937896198632, -0.42869161247816334, -0.4206574231189039, -0.43351059778295375, -0.45331177287261365, -0.4650320646405682, -0.46021442244382116, -0.46086236740045283, -0.4796474593373628, -0.4824551155445811, -0.45016239492204657, -0.43187943491925646, -0.42540906329374095, -0.4043380016381595, -0.4423741004194542, -0.46224109031340066, -0.47868874164897074, -0.48167765427642545, -0.48616858010257313, -0.4979788954616222, -0.47481488411090406, -0.4919586243221062, -0.5261591922489829, -0.5389923215951101, -0.5499988675915352, -0.552109306846255, -0.5295457824818688, -0.5509029675929579, -0.5422607726286622, -0.5639511656382893, -0.6006123691912244, -0.6045836113205273, -0.5973057532175866, -0.5964671963673166, -0.5752463147179391, -0.5823873532472141, -0.6078137253212809, -0.6041838595985053, -0.609956221311482, -0.6081859216176209]",True,0.6000,0.4000,0.5000,0.1000,0.2000,0.0100,2.0000
12,go,Hit,1,1.1900,"[0.0, -0.019172232626546458, 0.008419541644944302, -0.028841840145569134, -0.03111080620717399, 0.012389750550720897, -0.0013744812197280503, -0.02294715414618479, -0.03692989733633442, -0.041588979358736525, -0.054531800102626815, -0.059732216136921326, -0.05509940962074652, -0.024743074811341727, -0.010871120243386996, 0.033339974806282646, 0.05025927926296164, 0.053292093189713285, 0.044228907342776395, 0.06596419207409035, 0.08122695401363517, 0.0672001828036138, 0.07401565612260076, 0.09150137251438475, 0.08353297422412484, 0.09466554146177855, 0.1070672169464406, 0.09580167188479013, 0.056268266488010525, 0.05859930040650844, 0.07832020070924668, 0.11832309572451918, 0.08693132355353791, 0.07577132998138265, 0.05202705694050501, 0.08210435071287281, 0.07872937585903018, 0.06301315463779761, 0.09450301500991028, 0.1000035438405986, 0.0928006998913021, 0.08881620218689931, 0.08866318729393535, 0.08132243635862065, 0.06477864197046829, 0.06733055803708447, 0.07645547705666103, 0.1105683342282125, 0.12241334290556496, 0.10373922082576295, 0.11675641979245761, 0.12477277538206165, 0.09541276795414676, 0.10516961343138655, 0.10255424482889143, 0.10627774249951645, 0.12179622235022297, 0.13437593986513088, 0.1547524139619559, 0.11864866624162987, 0.06925477660646792, 0.05676908962554417, 0.06339341668616619, 0.08326625899128905, 0.06547150826945738, 0.1054419867742129, 0.14558281892506722, 0.14922349811786634, 0.1784927355222825, 0.17452632789622016, 0.19644217885147766, 0.18521077768913188, 0.1746799490272678, 0.163000029073775, 0.1605789926386308, 0.18453759650859924, 0.19185765371766086, 0.22381231996439577, 0.2481568421122553, 0.22824032083570148, 0.23846002680295433, 0.23900554616030778, 0.255479217673729, 0.2426579081995579, 0.2351762364713348, 0.2531102122568353, 0.27079375204885225, 0.28060977520590286, 0.2835434278935176, 0.3244787737268151, 0.344882641903522, 0.40220026505419554, 0.41930417463312847, 0.4239216012054672, 0.42545565825514764, 0.448240841607875, 0.47160374704246033, 0.4334514220204958, 0.444021468950368, 0.4485377852087151, 0.44122528430880525, 0.45809674278196816, 0.41258783814941485, 0.43933660894548965, 0.4572512653980806, 0.46695800289674416, 0.4947312365502369, 0.49377155037712217, 0.4748320284188399, 0.5091552270431668]",False,0.6000,0.4000,0.5000,0.1000,0.2000,0.0100,2.0000
13,go,Hit,1,1.7100,"[0.0, 0.03491575898848281, 0.012730575974904249, 0.005788385008994807, 0.0381286357193925, 0.043631038117439874, 0.0355707256056028, 0.0695956585835652, 0.09285394469747343, 0.09600245895883007, 0.09626629245312546, 0.09068906394017354, 0.07855120391095982, 0.08466749388860055, 0.11332249702797192, 0.13714310588351056, 0.1440858508174764, 0.16266626170646364, 0.15217692976616654, 0.16506005690118822, 0.17769544360636375, 0.18045776903432284, 0.2072062177499167, 0.20477859505927365, 0.21146756067141753, 0.2053331742141368, 0.16711865476343396, 0.16989948891761972, 0.17076878881438814, 0.1910792145942329, 0.16264459879089274, 0.16168280190036272, 0.18528521397297176, 0.16727742234103848, 0.16562406803739202, 0.19376982075289445, 0.18927251818638768, 0.19999153772903538, 0.16992804584574694, 0.16112468999571705, 0.13063458075675038, 0.1505497519655, 0.18390254939827283, 0.1625999082931733, 0.16397357868548618, 0.1798687641862078, 0.184537578300312, 0.2121628524365191, 0.25411461172041716, 0.2729357811710469, 0.274828129033774, 0.29735388491075154, 0.2816427389124507, 0.2682739327770056, 0.2834119841424325, 0.28538155782226654, 0.26713622167392337, 0.2710975112785686, 0.3017082652323097, 0.3356476781079021, 0.33649856106013704, 0.3360532801778445, 0.3142037944801459, 0.2975475729199391, 0.27928766343687295, 0.25813581395863944, 0.2465909793905406, 0.28880058077559184, 0.2637591981398869, 0.2965475705592707, 0.30077212289309396, 0.30647904291346467, 0.31904453039638175, 0.2985509053886362, 0.2878318467739306, 0.2953877529512871, 0.2827471187267952, 0.30638059218077185, 0.33043764546528587, 0.31966154505299993, 0.32576642716158866, 0.3277242670780645, 0.36853332763876734, 0.3595187118030634, 0.37903362666481816, 0.38875488425314647, 0.3965746149034518, 0.41401978759056707, 0.42438018477363054, 0.40919432472825884, 0.41165339780864274, 0.4020423396459104, 0.3678341945142597, 0.36598236695830366, 0.32773612721857176, 0.3120757871956725, 0.33350619716582275, 0.3513952797241549, 0.32230450305107206, 0.30741133521879965, 0.34818653473511263, 0.33109298621313, 0.35466281804340843, 0.35500452067834076, 0.3521879543674318, 0.3242415705846002, 0.335864935644693, 0.30780558789862555, 0.3123048965541651, 0.31586870540405665, 0.3307584205965207, 0.33927861403106985, 0.33351286665782653, 0.28939066630534455, 0.2749563332468755, 0.29782160829738435, 0.2900144207232709, 0.291376915825385, 0.3143941306925639, 0.3251992824212767, 0.341342020224773, 0.32156584782554287, 0.3116029651031242, 0.3528579720397854, 0.35083325962420864, 0.3581925168291389, 0.32986888628057315, 0.37526962019810867, 0.3568163420395136, 0.29031004322454607, 0.30174995671943494, 0.29332447820215524, 0.2990983826399436, 0.2909915520933575, 0.2928962468945219, 0.3000796154527202, 0.2914355683636575, 0.3153539909198646, 0.3032573569203252, 0.28160395553842843, 0.28273955708478643, 0.3087582314232164, 0.314288971240355, 0.3159267778045577, 0.35211134243663234, 0.3732690374825541, 0.3603054090290777, 0.374221657278246, 0.3886767894551722, 0.37149073908075925, 0.3740836294653601, 0.39851622877755105, 0.41532018164340606, 0.41319516798862466, 0.4239480691818084, 0.43677073986275494, 0.45885697187886604, 0.4293583281494101, 0.4681021791819767, 0.4762369835848567, 0.48105075728643204, 0.5050770488401165]",False,0.6000,0.4000,0.5000,0.1000,0.2000,0.0100,2.0000
14,go,Hit,1,1.6300,"[0.0, 0.00427399026123893, -0.0116717850880037, 0.002729473228614285, 0.014037778720122776, 6.551178786768849e-05, -0.003654601849570154, 0.00014748410236339535, -0.018660070380120217, -0.020186810406629684, 0.0011800375876578999, 0.06469004446902615, 0.025869572091404038, 0.08367895649551402, 0.08442536642073188, 0.051077078838221025, 0.04774741674462656, 0.041303216954570565, 0.03760417817920465, 0.03953844409178474, 0.028352550068652185, 0.039899921656326644, 0.018046923256509827, 0.03600445064196432, 0.03809609964734498, 0.06316219912644805, 0.05209523873273044, 0.03952507735481703, 0.0621549226587787, 0.06275254053679505, 0.07585413566241897, 0.08406798946151772, 0.07910706085557169, 0.06033543247325092, 0.04829825834015481, 0.05220825617278224, 0.048793892306931236, 0.05725802909248081, 0.10358747322825199, 0.12300154283088435, 0.14301692001830896, 0.15929931854592352, 0.14777797441220808, 0.14767343128623542, 0.1408217650606966, 0.11625293734464737, 0.11295131013052273, 0.08890186035092533, 0.08273323748205766, 0.07921471224079986, 0.09557075029317162, 0.07557826312168764, 0.047147108645864244, 0.03896026912129527, 0.059574501270309076, 0.05108600232822877, 0.055347356776165, 0.032266840587772155, 0.02962871612330207, -0.0014888217737230591, -0.013738389950301131, 0.00012999702849242345, 0.05700747353788378, 0.08365647285628694, 0.1119019381544156, 0.11235658037003768, 0.10458438333252233, 0.11885706172927013, 0.12498551492601785, 0.1196129227013376, 0.10161091197081437, 0.15688671783953215, 0.1928819562862994, 0.20989882627747145, 0.18248491337621883, 0.1980606348884367, 0.19171816541815118, 0.13291806597168324, 0.13669332594919864, 0.11773562131046095, 0.13234088875626263, 0.13294687346263073, 0.14086071704175201, 0.14183713970175774, 0.11206871298559659, 0.14613601540616034, 0.1626030809789285, 0.1578077777112947, 0.1546441438059642, 0.16318265081618064, 0.15128282233881252, 0.17655715721419712, 0.20099975426819033, 0.19737031864606855, 0.18893122141787122, 0.18578091284659032, 0.184471725156528, 0.16936894280359197, 0.16579790043637693, 0.17221171735189564, 0.17660686802071626, 0.19623767740370313, 0.24338226947321676, 0.2112972247177416, 0.2503168946842332, 0.25321462022510116, 0.2504181200601025, 0.26543938275861334, 0.26095502895516903, 0.24205039670832337, 0.19080340329139917, 0.20616826663177135, 0.2318126718156824, 0.22414288977816765, 0.25744690724136166, 0.25792351775717587, 0.23679098904716833, 0.23961936711874066, 0.24105552033427435, 0.27880802263249393, 0.3147915074848222, 0.34269272776878623, 0.34768744095156967, 0.37346834384550154, 0.3735080471965807, 0.4003527507856356, 0.4142118150159915, 0.3932143648396789, 0.40969645855872516, 0.4084552946022134, 0.4244016082451665, 0.4211283152077795, 0.4064985204785064, 0.4106440688162635, 0.4419360671378379, 0.4377178973063515, 0.4634118305276078, 0.4418559841853748, 0.4444970732680367, 0.4339865998878059, 0.42396065063859645, 0.3946458594679147, 0.3998190253002404, 0.4035715033423971, 0.4376895665155265, 0.4274265455564314, 0.43495808271674014, 0.4605568038109444, 0.46853829377327877, 0.48537542361434083, 0.46741586495512066, 0.4671614020013622, 0.4906593680223378, 0.5245419253982146]",False,0.6000,0.4000,0.5000,0.1000,0.2000,0.0100,2.0000
15,go,Hit,1,0.7800,"[0.0, 0.01623358658752403, 0.015889197583017354, 0.015919696937990356, 0.014452732736961512, 0.01397830740926997, 0.03916526797367514, 0.08973539912818129, 0.09717967274815813, 0.11728370809474839, 0.12658977719999018, 0.1527805318955865, 0.13798229939173542, 0.14013770713949927, 0.1306983830853874, 0.16266182914926672, 0.18490515491598747, 0.2152082793460995, 0.219860139262235, 0.24213596936172804, 0.2645326829100949, 0.276300158398194, 0.29230139040888836, 0.2770014978372704, 0.2896617512640605, 0.28046470584632277, 0.30141497863925165, 0.32274872646743996, 0.3312942989279125, 0.3280791086182389, 0.3340938118762214, 0.3593907444551837, 0.3743496749798677, 0.3634213533100149, 0.36965439736824557, 0.3554426757328589, 0.35484218835963705, 0.334795735860709, 0.30662521080676314, 0.3189698752977206, 0.312954356009639, 0.30809501916706117, 0.3404332738067413, 0.3605568645200295, 0.370732030247705, 0.37227806400604907, 0.3786946253071267, 0.40132479918254305, 0.4057415575576362, 0.40872400864388075, 0.38346354305591085, 0.38716126018584684, 0.3978998299138763, 0.4097710926820278, 0.4317039294137778, 0.450700978386112, 0.42545777386595196, 0.43312243415079793, 0.41705257472263196, 0.4478758244799342, 0.4403018799944688, 0.487789177910483, 0.4587753236514645, 0.47253072108697597, 0.46141092225472724, 0.4427418156925954, 0.4809516372788931, 0.4993112484325043, 0.5146065851224866]",False,0.6000,0.4000,0.5000,0.1000,0.2000,0.0100,2.0000
16,go,Hit,1,1.0800,"[0.0, -0.0161038695722705, -0.006445258469404153, -0.016589661385303406, -0.017118394094127177, -0.024738326827872366, -0.04106653576256851, -0.036939150105431265, -0.028598687216645092, -0.009526591548914488, 0.011447229618067, 0.00871456085606914, -0.0023684976845952076, -0.006461407537069759, -0.0019318401108234483, 0.023415801900728592, 0.04182791818944705, 0.04492039120106398, 0.02755822231719955, 0.01789844013508731, -0.00177498471413539, 0.011144066673446154, -0.0031025187497174516, -0.003280073515131642, -0.0008683738679740758, 0.01740728992793374, 0.005540641101308591, 0.02370141081453877, -0.011015187494940085, 0.021921615917070876, 0.03157046930277712, 0.06348498213407655, 0.01791540484459895, 0.0431053835270174, 0.04970267007448455, 0.0628007526466019, 0.07101099415289577, 0.021015268525560613, 0.02831106830804135, 0.04214415057208278, 0.046945963479178766, 0.07097746585365787, 0.08341282992492444, 0.0648865158378433, 0.05355787591813617, 0.0406099847289472, 0.07271120057426136, 0.07626507953820492, 0.09538918570554146, 0.08367600902624976, 0.07659929053319253, 0.08198647121206701, 0.0880945254026372, 0.08368876889149791, 0.1104624512266543, 0.1103724163600765, 0.10707032126275971, 0.12209742164680931, 0.14348158302939162, 0.18938643358762802, 0.1845818872037872, 0.19378195446762286, 0.19715670265154997, 0.19828070864034109, 0.17820346949407484, 0.19324252590238014, 0.22384112807116321, 0.23227614061575888, 0.25315872791977634, 0.2599071567402383, 0.2627093350150564, 0.2607449832441022, 0.2545603378595644, 0.2773943788168525, 0.2573646914657607, 0.26615043626828333, 0.24895946003510372, 0.2875957123304429, 0.29001560349671335, 0.28336135181640454, 0.30163728964388087, 0.29128009343961647, 0.26385545425395057, 0.30199682447520243, 0.28864565838545225, 0.2916922163526677, 0.3180360734129747, 0.31551119656601234, 0.2939134316260483, 0.2964873207170147, 0.28827657243153826, 0.3211206786159355, 0.36306662809571577, 0.3966191696920025, 0.42038979610009436, 0.4548263544154499, 0.46370485785496107, 0.4765349972256345, 0.5232510596374649]",False,0.6000,0.4000,0.5000,0.1000,0.2000,0.0100,2.0000
17,go,Hit,1,1.1300,"[0.0, 0.005121977182659906, 0.008550656849475577, 0.01710150010007839, -0.005067284435121798, 0.011231480879428293, 0.026059878622343283, 0.03561716570393926, 0.030069212942729545, 0.007917411469484888, 0.031845712990378625, 0.041491570446461054, 0.06155902534044993, 0.027360109234790056, 0.02172616921574713, 0.029355425483629443, 0.04358011187054714, 0.0553009240769178, 0.06520864978567617, 0.06299015942598632, 0.07500486219748548, 0.0828430026501097, 0.06749991439844191, 0.04539654499920019, 0.059580416137506975, 0.06528102061956283, 0.046675456912597224, 0.06446508022408676, 0.07195116215480808, 0.052687989737550595, 0.08280240013680479, 0.0692941672793949, 0.06602025387550498, 0.04730572804994782, 0.06127453931945573, 0.07907898722418583, 0.08422405227925192, 0.07834082235628856, 0.09259707022291946, 0.08971282455262602, 0.10281643262849896, 0.0910066499417033, 0.1042061723840008, 0.1290710927900246, 0.13682021257074692, 0.12344067137584323, 0.09898538591259937, 0.10531316968724838, 0.07262729220024033, 0.10129009779663802, 0.1100555980918187, 0.0902161624131644, 0.119805420462433, 0.138982259582747, 0.1547609187467329, 0.1270545056937151, 0.1534726193857458, 0.16569174998051064, 0.15426665204217865, 0.17230583539364566, 0.1600030429133879, 0.15970437995675524, 0.17010333726467797, 0.20932401079647883, 0.2016621180228259, 0.23300605183985232, 0.2576031984547412, 0.2515468077304331, 0.28529164411251884, 0.3010666959275197, 0.2966444967554847, 0.29095688591361907, 0.3134554584857109, 0.35381445063200007, 0.31111228431672333, 0.3370589235580485, 0.3671254718598105, 0.39325659278332936, 0.4149253626735391, 0.40028580135314507, 0.3995748565112142, 0.3683318754084857, 0.35457336883872603, 0.3456520846180197, 0.32269451358756784, 0.298986991919137, 0.27893456784703885, 0.2920775102595291, 0.2861860241219304, 0.2621362209442369, 0.3028467597091747, 0.33722634786672917, 0.37620376877028977, 0.42373178523751714, 0.4009093777372814, 0.4127163446422579, 0.4447025534718002, 0.422495016451381, 0.43705247839915873, 0.4419892808270738, 0.4512926516902865, 0.4847493886942129, 0.49359108988295397, 0.5184138295515234]",False,0.6000,0.4000,0.5000,0.1000,0.2000,0.0100,2.0000
18,go,Hit,1,0.7100,"[0.0, 0.027741808388435145, 0.07114446034134789, 0.09092183594022929, 0.1013306605873931, 0.12606027044682883, 0.1359155917656656, 0.19611757548757053, 0.1791716782288069, 0.16973200944321945, 0.1500897455191667, 0.18560918343778804, 0.20424252472345295, 0.22022282541628324, 0.22834944919252728, 0.18514660796547663, 0.18158872106571974, 0.21306429050397502, 0.20707795695750875, 0.22695825043682125, 0.24369446334895078, 0.25928302062326675, 0.2452176196049854, 0.28296436661453683, 0.31103536664956616, 0.3227934365790129, 0.3234195104197922, 0.3090530586661862, 0.3296505829171777, 0.3353489327920861, 0.3009093470758149, 0.3267009909599312, 0.32428617316169817, 0.3216983462455099, 0.3350637334562918, 0.3423967638916607, 0.3152496286434504, 0.3433484592850581, 0.3210733349815637, 0.35493457487836955, 0.349196909857274, 0.3801927735256286, 0.41306946780938136, 0.4019636230178152, 0.4143026239495843, 0.4204405096428399, 0.45835681650133575, 0.4620617307764332, 0.47680249037997474, 0.48166970836568157, 0.4799190100461778, 0.4741880626371354, 0.4525256279740371, 0.4412325260584149, 0.4703821377415791, 0.4580550254459743, 0.45833919138392365, 0.4740530746587909, 0.4718070184555929, 0.46799458475183153, 0.4888448086616704, 0.513327418563801]",False,0.6000,0.4000,0.5000,0.1000,0.2000,0.0100,2.0000
19,go,Hit,1,0.8100,"[0.0, 0.029189919637717755, 0.039567666173413736, 0.0458117834904541, 0.04491177554648759, 0.07409060402713635, 0.08520776234777158, 0.1369334145319283, 0.09779345085108831, 0.09755961772866713, 0.11355452191013057, 0.13495675988681283, 0.1526947705114114, 0.13330121683109802, 0.11668080702394143, 0.11044334092012377, 0.11476744320738379, 0.09959786586922634, 0.12002352036647289, 0.11809442005184079, 0.11434460078875873, 0.0940391991563664, 0.10963294565590802, 0.1191161706062575, 0.0924600140041325, 0.05565412941308293, 0.11014907414206293, 0.08836597906376416, 0.09078687445080237, 0.11240176154111944, 0.06321585790428924, 0.05222426017131903, 0.02776526308137267, 0.03143649697334114, 0.056408970281081335, 0.04551914392895064, 0.07090022512422081, 0.10247387523119936, 0.15722852001940768, 0.19177841288108655, 0.2391071031199353, 0.27573439305056885, 0.2887791911105862, 0.3114908874443101, 0.3350010018397527, 0.3383439648743475, 0.36129237629994554, 0.3986571742021279, 0.4132034678630776, 0.4098796888408476, 0.4196215508018771, 0.4197772989500394, 0.38606253847186595, 0.354264080262501, 0.34719031476514445, 0.3708132681183719, 0.3589543077605597, 0.3760990600070275, 0.41418131787613216, 0.4158845553960789, 0.4440115528592673, 0.4287866000442006, 0.4224104019652908, 0.4342533225716907, 0.45094405032236873, 0.43855996626978105, 0.44165634111124874, 0.4492229065196396, 0.47757192897089856, 0.4843723256557581, 0.48659349486835707, 0.5066975075163215]",False,0.6000,0.4000,0.5000,0.1000,0.2000,0.0100,2.0000
20,go,Hit,1,0.9500,"[0.0, -0.0032782551789512105, 0.005111741254020747, 0.02060979032855568, 0.018275019079287087, 0.026432326891677755, 0.0006107264842711117, -0.00018787444717236878, 0.011575124983630617, 0.013839375783111422, -0.0038764545188944514, 0.006216758547219169, -0.012198848609177526, -0.041218309002439855, -0.019227216034676302, -0.014774433278256213, 0.01569458938756619, 0.027395376261555374, 0.052446726212842236, 0.05870034233542191, 0.05015449862990944, 0.04833605844710431, 0.07684280412455693, 0.04961022821275449, 0.039880408223717204, 0.06057931847112254, 0.04650692247334943, 0.05056864361916068, 0.03381849260295864, 0.03831915218214857, 0.043737051186016486, 0.05720192759782718, 0.0908708962052785, 0.10231944325272446, 0.09872965183046864, 0.08832555679657532, 0.09311226997017512, 0.0936042725296911, 0.11231629522600914, 0.11356624431152536, 0.10353856379987406, 0.15107874939496443, 0.08970795451564595, 0.11956048218151562, 0.09798706701372704, 0.12166675921056153, 0.15565922466996493, 0.18220988752463488, 0.1915273579358006, 0.19381705985641345, 0.19203638467493897, 0.18753719220345494, 0.21418758838986746, 0.21090742852333735, 0.2421779301742717, 0.24761666332612156, 0.24519092620771488, 0.26474325340967375, 0.28479688339509723, 0.26522098013100914, 0.26941838192725076, 0.2785973335575264, 0.3089125957856005, 0.31762707710596244, 0.32017867145073386, 0.2986608954685948, 0.3130824609527748, 0.323317469918421, 0.3264515963111549, 0.3500978350652645, 0.37872266466698334, 0.3892665742789907, 0.377201001474537, 0.35906565142971875, 0.34817860671794576, 0.3931568961971221, 0.4214976258253289, 0.39976346834373333, 0.4323403208068485, 0.41953333357776434, 0.4240524947005299, 0.42730371411011553, 0.433084558941216, 0.47436104265599127, 0.48461045704806055, 0.5247670331932104]",False,0.6000,0.4000,0.5000,0.1000,0.2000,0.0100,2.0000
21,nogo,Correct Rejection,0,2.0000,"[0.0, 0.03378385537312395, 0.015347180974316563, -0.0035108489561897875, -0.018994283972621286, 0.015182495336879393, 0.031241694659854862, 0.026862209888965507, 0.02211570536531439, 0.002808885517872714, 0.029793965906757057, 0.002809005134107586, 0.007059636407547616, 0.001425742795556884, -0.020119692507503506, -0.025398646874760185, -0.02990331008434571, -0.05731259853524573, -0.06017557112668527, -0.025050506657027433, -0.03198218697923986, -0.04358627427055123, -0.04517832132024711, -0.03697254198876257, -0.0616640092075558, -0.06005718555879604, -0.05334201711860316, -0.04812501661732868, -0.049386965322671054, -0.05500654011821306, -0.07132534270699428, -0.07053645970535628, -0.08761573715986098, -0.0590210446578651, -0.10077319462656459, -0.10836294531170942, -0.12425220280740044, -0.13269323714732606, -0.13749827546635604, -0.1458898235221317, -0.13128745284773852, -0.14191450013900328, -0.13966212519230262, -0.18929205300406457, -0.17169823438736517, -0.1907038497046634, -0.1846726597512935, -0.201761905639478, -0.19652762807385465, -0.15990713260931783, -0.19729732516789855, -0.1791499976037733, -0.17900701494076207, -0.1450390565047898, -0.18564545893234996, -0.18470113055993903, -0.18363863893808458, -0.18531311563261582, -0.20677239256489996, -0.21499965205547392, -0.1933977075835714, -0.17128114909515643, -0.17944929710436044, -0.154321139535311, -0.1314037332385922, -0.13666688971921995, -0.14203179937032892, -0.15984831856390594, -0.17121699442681407, -0.15566835039047094, -0.1497610703443709, -0.17306573845810969, -0.14677829569553594, -0.16701976878875419, -0.19597923795969538, -0.19578608212268656, -0.20554613319516524, -0.21027398259983354, -0.21990203384893472, -0.21141758475977832, -0.21480000031543567, -0.21936871952819625, -0.23844687251960595, -0.24951283646012126, -0.23944977242078194, -0.24927122535676444, -0.23613844534711384, -0.2663996028820623, -0.24042231876090853, -0.24377551381916265, -0.24237259366733538, -0.24734972237186315, -0.21880863883134855, -0.2040767497157811, -0.2001303659414989, -0.1824639808432601, -0.17721943955671726, -0.15050174243563758, -0.1299049439203412, -0.13567878346832793, -0.13148823926619052, -0.16372241967988235, -0.18568993580301815, -0.2229315460360026, -0.24371539530124184, -0.2635584035814637, -0.2872308729912828, -0.2884059172896586, -0.26590655583525546, -0.2300861216497125, -0.24897124365401357, -0.2376795055734482, -0.2455419861288478, -0.2593390587014862, -0.24072396563491516, -0.25529100384876524, -0.2355081812773054, -0.2791390306352816, -0.29881706791667606, -0.3147993301630506, -0.3101848288465696, -0.3153362100140052, -0.35274106644532893, -0.3443464347443999, -0.34632644685013214, -0.3495270800937665, -0.36017044441524443, -0.3437246367654082, -0.3285458418302506, -0.3258529402821592, -0.3363121584995823, -0.3290488439438598, -0.3305273826384456, -0.3459696098698214, -0.3595204169005589, -0.3757592273307466, -0.3719889992649705, -0.40050454233817984, -0.4224738537079839, -0.44860526945928186, -0.4280069288971838, -0.48014322341975796, -0.4945151781320527, -0.5055466820697667, -0.5414707574909924, -0.5417239083284093, -0.5237291679317161, -0.5358496139570255, -0.5393360730556819, -0.5439238765627675, -0.5354336628188493, -0.576256422198403, -0.5707409219127177, -0.5502714911660578, -0.5420572383821476, -0.5309243449621148, -0.5403749714866969, -0.562246937818049, -0.5776916128485251, -0.5914802256741016, -0.5975400615393927, -0.6000240901577459, -0.5842701846005622, -0.5611367118487851, -0.5396905149291197, -0.5281769520828221, -0.5574298399125097, -0.5814167133207815, -0.602837506488982, -0.6287277633921668, -0.643132205829565, -0.6314841249267028, -0.6393597023256292, -0.6386015974996476, -0.6298949735150449, -0.6432735084821272, -0.6750760724464454, -0.6682833556703901, -0.6881815676756472, -0.7241079772143254, -0.7502722112629183, -0.7813166124426876, -0.7574424818375715, -0.7610411323976259, -0.7921662475752043, -0.8044317110182021, -0.8307019095657523, -0.794474740719138, -0.8391767627311254, -0.8738281087180008, -0.8634327704714334]",True,0.6000,0.4000,0.5000,0.1000,0.2000,0.0100,2.0000
22,go,Hit,1,0.7100,"[0.0, 0.01640064879634796, 0.034936375323347924, 0.07860265779731465, 0.08911609397473996, 0.07988848967143608, 0.07254054915253598, 0.08842907719437837, 0.12223401648190141, 0.1262384532347083, 0.1316772675202179, 0.10362721862700876, 0.11486362768995806, 0.13789411278942876, 0.15467777691057025, 0.18399221537066635, 0.18967369562944114, 0.18931281267560426, 0.15957926011640922, 0.18181622333032665, 0.2018154026278918, 0.21625606466969707, 0.2625281712955513, 0.2726500044924757, 0.27567212893939136, 0.28914852825615994, 0.30491082309769957, 0.34034998952678547, 0.35563417428796423, 0.37007806924268194, 0.3583071232321542, 0.34840524740849266, 0.3412560985272393, 0.33686085300067786, 0.33096028950760314, 0.3514163348806867, 0.3526417135050855, 0.324407685138654, 0.3636327088694335, 0.3286628940641651, 0.35074456420501526, 0.33671608291458405, 0.31909568370547453, 0.3149772669449401, 0.2961066667328809, 0.28334327144328936, 0.29593329100840243, 0.32784951044885013, 0.3467701728310375, 0.3302903381872131, 0.34197501942369335, 0.3570208827139208, 0.3796760182505479, 0.35947840829735916, 0.36314315801730157, 0.4047408895404643, 0.40102841515282134, 0.4204681561283464, 0.45463090576714604, 0.4715081599217199, 0.4960470407645345, 0.5440086107007532]",False,0.6000,0.4000,0.5000,0.1000,0.2000,0.0100,2.0000
23,go,Hit,1,1.7000,"[0.0, 0.00837366513877887, -0.01713753528873761, -0.03135642002243876, -0.012440302011378798, 0.005581916545770591, 0.02563834305689999, 0.030709982531919804, 0.05973854708681877, 0.06030509718420309, 0.04681781918511702, 0.041547397918015885, 0.05012228108564574, 0.05072380738749263, 0.03964723590138513, 0.04859890607212136, 0.08560658752666064, 0.10974466777604526, 0.1255534562053885, 0.13340844494311507, 0.18386889513678845, 0.1719773369045743, 0.1895899260854169, 0.1951168400463215, 0.2246609470067753, 0.2324033994810878, 0.24175331145819487, 0.2552398392048957, 0.25618995701546265, 0.2640358936472294, 0.2814650607300704, 0.276855836763198, 0.28510474746965614, 0.2826964359366168, 0.3246220373533473, 0.34272418898777424, 0.3143131149937838, 0.28789961661569735, 0.32758437588218553, 0.30912998733406316, 0.3043135202542031, 0.3162456107242159, 0.31775483285999445, 0.34491063103536596, 0.3622616541460255, 0.3769522026440151, 0.3653210441261869, 0.3715362602092715, 0.3703084800221903, 0.395037369203455, 0.4107120240246074, 0.39290102798464677, 0.37639820395121276, 0.39388774053148573, 0.3967280141487277, 0.3655519930213512, 0.3474098030713905, 0.35131801738330126, 0.3466489685175876, 0.34617040183154124, 0.34090096921972013, 0.34568458154002296, 0.34198832182629446, 0.33382364858171754, 0.36384384096938427, 0.39348834558968543, 0.3547298664261947, 0.39932353796063863, 0.39425480076550845, 0.4203234100978396, 0.44393877501543066, 0.44903400681067657, 0.448581993824357, 0.4224915779368418, 0.41083168824394134, 0.3802738316553401, 0.3912150806163814, 0.40788902614094535, 0.3723575059298227, 0.3837341377794832, 0.383859850048536, 0.3799754540354882, 0.37158731319137966, 0.36286888676591783, 0.34468258437595195, 0.34623056583595413, 0.37342003409611085, 0.3763685000447737, 0.3983692978126891, 0.4163616305838201, 0.43009822516120266, 0.4042036766457013, 0.40654607402896853, 0.38735835346184483, 0.4119778462005039, 0.38914416440094535, 0.40642063021626623, 0.4199490105083877, 0.3998784869917205, 0.4033967027645937, 0.42122754351440966, 0.4384272846959287, 0.41111494738674553, 0.4350473925374268, 0.4171042940905833, 0.4127099124092009, 0.3947624152661058, 0.39427467041887415, 0.38248539639150886, 0.37092598689247247, 0.38567518128246986, 0.3671328799164336, 0.3232140864121281, 0.28492764474957116, 0.2807883391264854, 0.2935746005256461, 0.24198852981944793, 0.264550054209142, 0.27708193510410845, 0.281727977091366, 0.2978791386796938, 0.3068630439530267, 0.29114958360370835, 0.2611511118379648, 0.2718191450516676, 0.283929047726505, 0.3276565209365598, 0.3067054297064969, 0.3344010816335782, 0.35068991469631505, 0.3606174167550852, 0.36203256021104135, 0.3611076044799784, 0.36772485331936233, 0.3811089086587359, 0.3898649569114065, 0.37883480186640683, 0.3627850280254659, 0.3645377848948346, 0.3643198166086135, 0.3765164528166416, 0.33764798498782994, 0.3414235020038661, 0.367091820048045, 0.42778813610846894, 0.4477350420232934, 0.44087371952987703, 0.4125892794254794, 0.43455695704277425, 0.40488460920570357, 0.40117182416994346, 0.4196081892051141, 0.42880240017940385, 0.4355264750776325, 0.4386054586155976, 0.4251878289957765, 0.43110378543248423, 0.4664656183866434, 0.4959979632234493, 0.4741571145914604, 0.5063992330516347]",False,0.6000,0.4000,0.5000,0.1000,0.2000,0.0100,2.0000
24,go,Hit,1,1.1500,"[0.0, 0.006371487531033759, 0.0024967304248770823, 0.01322280720407068, 0.03718148251952086, 0.05338164035531325, 0.09183503927000833, 0.0936326826188035, 0.10704716216272006, 0.127376732321612, 0.12871719126707007, 0.1293730906948034, 0.13519887559866234, 0.13481389370722252, 0.14424274994741482, 0.15190716813552183, 0.15476095471325088, 0.17859703711930153, 0.20363413980666875, 0.18652408934391293, 0.20853496480809353, 0.2287452953303354, 0.24665864115853822, 0.2614977970734692, 0.2875190780611831, 0.3108439483689098, 0.3056791959202507, 0.319130690127043, 0.3061280549400298, 0.3126346316905368, 0.28812973743563575, 0.26434115159475524, 0.26610193677813954, 0.23746398754256476, 0.19269342773537426, 0.1628381040634752, 0.1867189602045079, 0.17474554081350138, 0.17012543337260172, 0.13836230259037438, 0.17110961319715784, 0.2001613280027511, 0.20651474897229274, 0.17480045931197236, 0.17081688936855782, 0.16406695442744498, 0.18169943786633203, 0.1750544819704498, 0.17622504677783013, 0.2263946987775727, 0.20228922730271917, 0.23441904668803143, 0.26218041981413936, 0.3084267868996238, 0.30538669492370707, 0.27954072696937216, 0.27205213191685024, 0.3062662148750199, 0.29573646734401743, 0.28518688040040874, 0.2901523407936989, 0.30373906739865425, 0.28824020920797006, 0.2511237389427433, 0.24424313031609152, 0.2568256645909739, 0.25353913689053065, 0.2732214899805875, 0.28593613213763847, 0.2748148441008738, 0.2705592974157658, 0.2601575397726408, 0.2657012811989569, 0.28660738651088447, 0.2948826217120908, 0.3038047567724377, 0.2989790372975117, 0.30194803124412156, 0.32707686055353435, 0.30762341890857725, 0.305306773943508, 0.3372711726782923, 0.3598577580243216, 0.35799878389734746, 0.38243885304666747, 0.3836967443192807, 0.37367081046694145, 0.3645209374990675, 0.36358723414580935, 0.37471698464491315, 0.38267633103249765, 0.42859249711931, 0.4242551818297529, 0.4387825910978386, 0.4404916584956712, 0.4280732922670281, 0.42846479435390095, 0.43657774316481496, 0.42269629791287144, 0.39778819755989775, 0.4324751431424172, 0.41889557280290934, 0.4661479064375928, 0.45369244015746824, 0.4943836584061803, 0.514654673102175]",False,0.6000,0.4000,0.5000,0.1000,0.2000,0.0100,2.0000
25,go,Hit,1,1.5100,"[0.0, 0.003460001001505525, 0.046638631956890754, 0.054545060854875656, 0.062040332704565715, 0.05914290723158888, 0.05664579212168355, 0.04711355244821239, 0.057439695194838145, 0.06555413587707269, 0.08512813520068178, 0.11115526156266643, 0.08472889200307254, 0.11288706805735746, 0.07283082013463926, 0.08205498755231488, 0.08556323728896266, 0.10735633049725503, 0.10670516355568085, 0.08775958269313927, 0.09334167537685675, 0.12551816860431442, 0.12453629095360139, 0.08293154726593652, 0.09738789492499808, 0.04252590225275297, 0.04566452754541682, 0.07515262918817156, 0.0492137202954928, 0.06535203482614747, 0.10681268385294848, 0.13547812846385202, 0.14107984508029783, 0.10623501466106133, 0.0942366000585065, 0.1165381549714834, 0.11498715214280494, 0.08713605966572063, 0.08928887789961866, 0.09853961834002606, 0.09958442493344269, 0.08526268616118288, 0.10949893309870024, 0.11088773830308148, 0.08441968804137909, 0.07605897863074812, 0.10340880813485692, 0.11856545405442985, 0.11657678557019481, 0.11633446758510955, 0.13226957320900623, 0.11319527394297771, 0.12859285606442794, 0.1398324196452459, 0.17225356933491826, 0.1746202105396492, 0.17164196944292232, 0.15573063726398526, 0.1332449737332413, 0.14328175916819338, 0.15394374119809492, 0.16681751733107483, 0.21006413381684608, 0.2237184723602396, 0.23694000547328586, 0.23660908048270438, 0.18185797824222438, 0.1989174971948397, 0.2023868308520477, 0.22637747157179636, 0.21196074726214564, 0.2171254128433564, 0.19843687238351848, 0.20251617864611982, 0.2116631048582836, 0.20212855728005577, 0.2262120377249903, 0.2657473447016463, 0.2545168406681285, 0.25084039753479154, 0.271742023551377, 0.2908257498045194, 0.3000585818533707, 0.3090899858424903, 0.2722947865712269, 0.24270744437888828, 0.23282132634845334, 0.22121402165750723, 0.18526701768728118, 0.17713513137908865, 0.1891490381846134, 0.15047857742271212, 0.1750311805097517, 0.1881953436975746, 0.1873507714620933, 0.17158677760470395, 0.17074396356682842, 0.14076933556428728, 0.15445884283515404, 0.1483132608347437, 0.19458939534476666, 0.2155940020527387, 0.19919547026477546, 0.2361689316507203, 0.2546990034439563, 0.25676526457479365, 0.26996765903589126, 0.27174199233090307, 0.27647529127235176, 0.28977401345768733, 0.27757898219216376, 0.27988538596149737, 0.2871201940748332, 0.25914079934838774, 0.26900889572072817, 0.29328187144474155, 0.2649581340542174, 0.29057574077517684, 0.30607648762871736, 0.33039518217574465, 0.3782839041875308, 0.39988669561032913, 0.40088460670730397, 0.39265584194076075, 0.3663325161437497, 0.34916664600730424, 0.3343759843176855, 0.36423251076916396, 0.34239537382739715, 0.34852771299833946, 0.3596496984108351, 0.37553614750750475, 0.42908920381123383, 0.44055887109055497, 0.4173494481663085, 0.39594968335821473, 0.3938757820138737, 0.4048205499447547, 0.44063313491880285, 0.45819159460354897, 0.44235130741710127, 0.5178536789711767]",False,0.6000,0.4000,0.5000,0.1000,0.2000,0.0100,2.0000
26,go,Hit,1,0.9100,"[0.0, 0.008971586180169158, 0.011551342049185636, 0.02188882685108505, 0.019854098104388117, 0.03353352107008736, 0.046049206311655294, 0.053573448287564544, 0.06048330489619836, 0.024756369169957215, 0.04562573388849919, 0.06481536179370173, 0.01805766758913646, 0.018921131853950467, 0.021098180932775466, 0.03250962863067631, -0.00376988686309241, -0.04198650230680787, -0.08611959385824636, -0.09734480074377759, -0.08970850847938133, -0.0969593927469196, -0.0638319082594686, -0.08523511250727071, -0.0657662397615322, -0.06440809628043068, -0.059998149948281065, -0.06806885520370871, -0.054238736428230676, -0.04873800132464926, -0.04416272860507155, -0.03756081059946783, -0.024141635202918812, -0.014025320774879592, 0.018807818926744067, 0.01760466826972133, 0.03782096803241921, 0.03391669820580331, 0.02509385367597606, 0.006867115520896742, 0.021708574122116596, 0.014346228198561949, -0.0394348511933583, -0.03517828717298885, -0.01932358881831518, 0.012906318575877904, 0.02277028464501331, 0.034328752818916244, 0.01413400893716827, 0.04286216890439693, 0.0582405532452887, 0.07684163600947408, 0.07561403036331203, 0.047414667955545914, 0.03616830353397114, 0.07070891187602232, 0.052056584753844476, 0.07149772325358977, 0.09447701805507011, 0.10919157378056132, 0.13091193106710508, 0.15793868991836266, 0.1992576331032685, 0.21661434549108277, 0.266920930605665, 0.28175135857170464, 0.31866724958212234, 0.3467240458471536, 0.32946130064285395, 0.3690017200178834, 0.3729595871098697, 0.4065479543792972, 0.40393865221483877, 0.4459075827476514, 0.465574283974333, 0.4664004591577706, 0.464720627453279, 0.4554392106487867, 0.44308375186226057, 0.43810397737101847, 0.47707178067996386, 0.5142070003747887]",False,0.6000,0.4000,0.5000,0.1000,0.2000,0.0100,2.0000
27,go,Hit,1,1.2500,"[0.0, 0.015293109592659877, 0.024810394190858773, 0.027730692718965454, 0.03108933318827519, 0.013972825619762722, 0.0007396034832220285, 0.03014352320481757, 0.025267448176036544, 0.04804242254842362, 0.08436997913633575, 0.11035729688824328, 0.09054969556935064, 0.10730533999966213, 0.10524933424899649, 0.12886447485651203, 0.09947485424662056, 0.14059920587588182, 0.1367795399317847, 0.12181126185727315, 0.14956873822128164, 0.11880063444598835, 0.12796471091909642, 0.11686408439640526, 0.13626135031197237, 0.11940472466387042, 0.11206882460475516, 0.10898639378424692, 0.1135027756807146, 0.1336228561332377, 0.16607924563997256, 0.16498190669260626, 0.1394655304826718, 0.11299008798063012, 0.1368487514142309, 0.09449627154729513, 0.09168377921492885, 0.08324624167084005, 0.08281012231488222, 0.11037839844360185, 0.12729250974027398, 0.1259492707705171, 0.10248318942890866, 0.08474464552595692, 0.08723256396752198, 0.10294662584326209, 0.13228335171313083, 0.1295918830717528, 0.13214442990852235, 0.14172993955960433, 0.16821054051436599, 0.1590802858045941, 0.17570015370130332, 0.1512840335171814, 0.16019279385762641, 0.16980280813606796, 0.22537436826352947, 0.24306168763848837, 0.23279556363513595, 0.21879623940229503, 0.2502625509206742, 0.2751287974069086, 0.2707620958835936, 0.3133696599860102, 0.2755637665198646, 0.2891993625601097, 0.273944613930109, 0.24166068926276185, 0.2582690649041424, 0.227778523754947, 0.2307691612804955, 0.22527211636221783, 0.2641070072818288, 0.28967612149496136, 0.29076030260314334, 0.28729126927825593, 0.30439721222818555, 0.2853452957514899, 0.30625571631975523, 0.3020632005671587, 0.3119299919051948, 0.31371175242549587, 0.3495351413340865, 0.3472677357085862, 0.3789707608671698, 0.3885481981285613, 0.3944597923177028, 0.3878098785122396, 0.4102957137398101, 0.40883718437905675, 0.4222995395659379, 0.4210144047023141, 0.4305001439223186, 0.46291120655203494, 0.45745395931945243, 0.47403594298447227, 0.45482391657392385, 0.47363712609374703, 0.4632965459096194, 0.4433768997952767, 0.45125725703186836, 0.4374600244536988, 0.4080986218833077, 0.39487952136589444, 0.4038641043872222, 0.3960886722420707, 0.3788441701878926, 0.4170815001432187, 0.45038527681259116, 0.4636957489521264, 0.46746178624406626, 0.4555579784983372, 0.4756002263999968, 0.49679472974280603, 0.48589622916992614, 0.5097694715960002]",False,0.6000,0.4000,0.5000,0.1000,0.2000,0.0100,2.0000
28,go,Hit,1,1.1500,"[0.0, -0.022477045706996615, -0.056631503970353624, -0.07829482046083594, -0.08277476714992539, -0.07777303351021266, -0.07525835723393234, -0.10227972808771124, -0.06341736230655515, -0.05246862424574657, -0.0410832418257739, -0.04321792751112548, 0.004820266723792814, 0.017430495773356897, 0.013203648686631484, -0.012120626777917436, 0.020097502075117638, 0.015023579181313917, 0.007888645271553956, -0.03291307993606114, -0.03252442535996133, 0.00838731617676055, 0.0037843166261539423, -0.012488948190881278, -0.002755716851285733, 0.008643828904936297, 0.0496515281974607, 0.07178093275855521, 0.06399281401434302, 0.059893750273644304, 0.07019327084897767, 0.03987201467519198, 0.04751856639362393, 0.08060543682908985, 0.041996653397322614, 0.038986025421167185, 0.01231493327788552, 0.029350412234120184, 0.054019515475745336, 0.05371929103781761, 0.07114271924805912, 0.06694594457575455, 0.03516624793974246, 0.06883682820524398, 0.09183970782164236, 0.10126517634376042, 0.0852563539012156, 0.062450316925976176, 0.1010818522351783, 0.08531558187135276, 0.07698727963576402, 0.08033551772666114, 0.07535833733048516, 0.10399434310420272, 0.13150660005428913, 0.1325471077289381, 0.13378557198769256, 0.12188281390447528, 0.12558918946100978, 0.10912756875988187, 0.12466756189883191, 0.1697482423749119, 0.17601102798973567, 0.1834001712455144, 0.18433138574327637, 0.19035336806429962, 0.23987471539376526, 0.24880767640860846, 0.2270179572951926, 0.23600597261179188, 0.24343474597617648, 0.23633999683943113, 0.2627947438072785, 0.28273089794790945, 0.2935922317970091, 0.29873885620241736, 0.30659458916658877, 0.2999620515030533, 0.3110462615288492, 0.2974968568391281, 0.2965693552516127, 0.29441452655330563, 0.30717362102029366, 0.3048615363719951, 0.28005118584229644, 0.26672947061297164, 0.3014851400392234, 0.3145488031134668, 0.322706465825691, 0.3117464664535549, 0.2853035530910399, 0.27479901795550316, 0.30676038880296297, 0.30829324943631053, 0.351218892792038, 0.3446621331921794, 0.3734674902795668, 0.37001948790623634, 0.43154066274733743, 0.41008513340972935, 0.4391376837365454, 0.4364051378956183, 0.4461509652529289, 0.4655980836054105, 0.49868426032171065, 0.5113933374611163]",False,0.6000,0.4000,0.5000,0.1000,0.2000,0.0100,2.0000
29,nogo,Correct Rejection,0,2.0000,"[0.0, -0.026399108578280157, -0.021070235518573583, -0.017843256106334103, -0.012631362276659472, 0.00320015843237627, -0.016614807570866287, -0.023465929638675165, 0.01814761416761404, -0.010930068424735803, -0.03779744365380727, -0.07606242951088554, -0.035051207283351433, -0.0526763807657875, -0.06223393766298012, -0.035275338240631754, -0.08550309803041162, -0.09967521866096977, -0.09621908527804945, -0.07367783011579884, -0.07959606296677757, -0.1146955141393291, -0.12078467339536442, -0.12929112810701404, -0.11305992845895874, -0.11563387917474166, -0.14998383966120193, -0.136928830854423, -0.13420076972057285, -0.10264122662870168, -0.12435174457899217, -0.09927874426512809, -0.1192812367605881, -0.12027964490150607, -0.10765083424307531, -0.11272234795220047, -0.07843452284481955, -0.038832990802749795, -0.04378386154971528, -0.05031272691515777, -0.04454406030424707, -0.05135946722455492, -0.035680267878551344, -0.060415052004626976, -0.04030824407737228, -0.04955828084238334, -0.07415998624814249, -0.07782485456011719, -0.058034757425936, -0.060488740203144584, -0.03852324640134207, -0.06291558388364993, -0.08915579356268571, -0.079240826726462, -0.09912022327504752, -0.09840521153793831, -0.11303472179308618, -0.08850957347199052, -0.06884406873255267, -0.09996900293888727, -0.07336462367004652, -0.11631136516697849, -0.09501544427517106, -0.09505254224693666, -0.09914764166844148, -0.0649684865021331, -0.055976470686163717, -0.055031065516857165, -0.04611774549463056, -0.036586888250258076, -0.059569021968092745, -0.05897206093741333, -0.05687864930346037, -0.03926923590075418, -0.027918556573795272, -0.0329309589099154, -0.020929159951030563, -0.037489717639548725, -0.04922931146467117, -0.056784323647131166, -0.05562703025059851, -0.07823666207603203, -0.10011301743072859, -0.11325666871962578, -0.10009872868472713, -0.11909958057985434, -0.11028484760673793, -0.11229090318176317, -0.13998568437587902, -0.18985213984081745, -0.2079652178408231, -0.1911282992512982, -0.1896110189953977, -0.21097178869532812, -0.23220529280351343, -0.2236053166331729, -0.19615001762210596, -0.2102717261405123, -0.20607457074991434, -0.22584141617559367, -0.230073442655379, -0.23968037874834297, -0.24917406062946407, -0.257900164042732, -0.26170789309023423, -0.2595452853747466, -0.27190458924764865, -0.2804186254153351, -0.3020776044641645, -0.2978824643490508, -0.31026040596837284, -0.3336958973687518, -0.32847913413891416, -0.3152521878463238, -0.31017194817906224, -0.3210505049307255, -0.29669769081571157, -0.31742388973957797, -0.32439670538207377, -0.28311349660210994, -0.3104738469957789, -0.32225046368630056, -0.32818295896408706, -0.30164260873254467, -0.30644582468213927, -0.3090472685589274, -0.36481740656327794, -0.38134329899499697, -0.41222447192585054, -0.38248680472137425, -0.38660932290914607, -0.37915132036840715, -0.3746222894098462, -0.39490244013192344, -0.3447305429663282, -0.33878428434726615, -0.33756614534192286, -0.35059071609778875, -0.337759470026567, -0.32609869282364995, -0.3153615736103742, -0.3329062023735764, -0.32747107378856, -0.32959770270464106, -0.3331368987182436, -0.34432113426042427, -0.33033575863159553, -0.31872485637120784, -0.34906659765920345, -0.35879094858794963, -0.36742509630993675, -0.3676689006969484, -0.38544186063573677, -0.40927784114475585, -0.43717057903667683, -0.409921090278187, -0.3986028523089115, -0.3947255235368991, -0.4002039647751336, -0.42578334171774435, -0.43085882702053535, -0.4253441044570001, -0.4313425743549681, -0.45598295579722137, -0.45398003247709506, -0.4509884570299792, -0.4527121654960349, -0.48795857983817703, -0.48952935290817406, -0.4865152705229898, -0.5144742838320613, -0.5459936842239793, -0.5531773750312994, -0.5860693634354126, -0.6073570218504944, -0.6268397886022296, -0.5945307438555194, -0.618671329463293, -0.6212137172493507, -0.6105939727283451, -0.6098163338322484, -0.5978885413451716, -0.6005677200291882, -0.6078358551167382, -0.592488243207769, -0.5997868149216687, -0.5992920270117734, -0.620418945711289, -0.5957463218213062, -0.5884666901002192, -0.6009602914842654]",True,0.6000,0.4000,0.5000,0.1000,0.2000,0.0100,2.0000
30,go,Hit,1,0.9200,"[0.0, -0.015769243915796934, -0.011419996784782501, -0.01853606837417172, -0.04503540505093652, -0.040689827008056484, -0.010608801141591094, 0.0054038110947419934, -0.003681715505884829, 0.02989784643425037, 0.06343876737464142, 0.07431364572351874, 0.050379875467186565, 0.05124467322711622, 0.07076661443342169, 0.08411395090192306, 0.11387919018803946, 0.10792782621650705, 0.108729267117769, 0.11007934893663822, 0.1132373724319339, 0.09222167327576752, 0.11298682350420973, 0.12676191073359747, 0.13927781684986246, 0.16399042499167923, 0.16693552037054013, 0.18638737003435935, 0.18411614675411464, 0.17610159324287095, 0.14137492339209187, 0.14733423292332778, 0.15421527377309402, 0.16534648841988042, 0.19765413003813737, 0.21344744766783852, 0.18470269778319662, 0.17817192683078012, 0.17743744510588827, 0.19992805771500327, 0.2040999422993691, 0.20197279694010215, 0.20831942093667793, 0.23731245563580164, 0.2803401694632838, 0.3049828292716894, 0.26385271215478306, 0.26064305630657936, 0.3174942252740467, 0.3040044862833936, 0.28135162264320246, 0.3127736075812299, 0.30234743796748303, 0.30558078948537154, 0.3043051520752312, 0.3207154228999238, 0.32807035819437713, 0.3262128361756033, 0.3435170845272878, 0.3225988165814003, 0.31194194668192454, 0.3477896946886854, 0.36605362883581716, 0.38398722097862037, 0.36425241461032715, 0.37367878619402006, 0.3719045033727725, 0.3442476367985332, 0.3419581325547298, 0.3642220710557252, 0.34567410899085765, 0.339707274813976, 0.3305724765424128, 0.39888085326031664, 0.4158240758033853, 0.44208313887967005, 0.42981826488117303, 0.453449397228545, 0.4395568629304406, 0.46951440982762305, 0.4644293436380341, 0.4891746301989943, 0.5025800302324275]",False,0.6000,0.4000,0.5000,0.1000,0.2000,0.0100,2.0000
31,nogo,Correct Rejection,0,2.0000,"[0.0, -0.055482601465594646, -0.06955239948349866, -0.07907947873957086, -0.05038673988706022, -0.024270584376999808, -0.002518630130525345, 0.02765896610792676, 0.036012494262237, 0.035171466784893, 0.05321379978167762, 0.08030878394963753, 0.08046098006885308, 0.09824453048116298, 0.0800531374759611, 0.0685943815661831, 0.05366243535406649, 0.02370351259855379, -0.009006727700893346, -0.002939192656591476, -0.005155913645351642, 0.00756395552052758, 0.012854058678426403, -0.009677019991861553, 0.00511276415458628, -0.031999862480825925, -0.022159424452118694, -0.07367607361229943, -0.14108406225051023, -0.1125924645764882, -0.10461414691460139, -0.11268836549760916, -0.14998582801163324, -0.17450996017887255, -0.175217487755194, -0.16141142132465508, -0.12429290546992598, -0.14609766281622402, -0.1666081744327786, -0.17528739256364817, -0.1853372990251972, -0.21877907081253453, -0.23713263885438615, -0.25445648917340363, -0.2587427878291501, -0.28376868474120476, -0.29783333072729057, -0.3341423401619808, -0.3014105242861039, -0.3183567208207439, -0.3215410540339334, -0.32042953506226823, -0.2848684929982038, -0.2873746681100242, -0.3172021134240377, -0.3254968760052358, -0.3317480812938306, -0.32990548162337335, -0.3390856215557968, -0.3466932678622726, -0.3405484613486425, -0.30240792592516014, -0.28339150736791063, -0.27469060657825123, -0.30136153509853275, -0.3218627848598897, -0.3274943726947266, -0.33260448255689296, -0.33727537661978224, -0.3896680594773923, -0.39274183810714086, -0.3995725151102467, -0.42868249046462825, -0.41187548476712416, -0.42893264440156514, -0.4567817306956073, -0.4682836311148548, -0.47371693513207347, -0.5051613182441638, -0.49246046466349763, -0.5455545086653171, -0.5486623609218337, -0.5513820147015864, -0.5287574896565527, -0.5167426132711633, -0.5207451242503213, -0.5347607418079465, -0.5329920969878823, -0.5406237335581697, -0.5042190934184998, -0.5045889667649848, -0.5371342502111498, -0.5315265017360915, -0.5463572254971766, -0.5553153412833193, -0.5558429866728747, -0.5341204196400796, -0.5749027814128262, -0.602511409921333, -0.6097183348362154, -0.5688765509820172, -0.6064008625200978, -0.6088833278587238, -0.5845090845730336, -0.5784842996398177, -0.5689416331978281, -0.5832199818932385, -0.5760661857752513, -0.5816916439129326, -0.5588810843618529, -0.5255960242890013, -0.5206086629553832, -0.5158254032201338, -0.5350927669708354, -0.5464820355415042, -0.5749327263624522, -0.6081759355061177, -0.6027719429924342, -0.6007657958029915, -0.586752171910639, -0.5820380617220258, -0.5717764263691173, -0.5893105307764707, -0.5784591884440624, -0.5838923356060235, -0.5812606912786105, -0.6043167724293551, -0.6043676356671971, -0.6012789033588969, -0.5999599362332769, -0.5573001005164551, -0.5414447955794547, -0.5747124143453843, -0.5973251490183514, -0.6083504232579187, -0.5998668948990387, -0.5868541480553655, -0.6080389154100222, -0.598075079450202, -0.6100477763947834, -0.6217105528307263, -0.5714809766745859, -0.5446571155108955, -0.5443530983590531, -0.5329974887855762, -0.5853744095520771, -0.5891495855032938, -0.5910937578210497, -0.618067048946948, -0.6190625915223971, -0.603537088421845, -0.585657534738211, -0.5779141436007801, -0.587025189220235, -0.5642427749100112, -0.5738707491701001, -0.5859051798856013, -0.6017349026891209, -0.609096961226854, -0.6273069609978017, -0.6520908786125663, -0.66503304581343, -0.6850882739914896, -0.6923496299298816, -0.6800314372532208, -0.6743350860813973, -0.6902311872977048, -0.698438683483909, -0.7192109388188729, -0.7418966396144872, -0.7372569213866678, -0.6998537541736132, -0.7358781544627297, -0.7410499832713441, -0.757047666519675, -0.7580287032336436, -0.7474828148272282, -0.773987915890281, -0.7614855646330083, -0.8131709281504436, -0.8295124888257424, -0.8286143666438656, -0.8102185865555945, -0.8202892128456052, -0.7987915399617761, -0.8068578096663883, -0.7926538202324668, -0.8093745093089352, -0.827260364640412, -0.814298968946237, -0.8069161289670332]",True,0.6000,0.4000,0.5000,0.1000,0.2000,0.0100,2.0000
32,go,Hit,1,0.6400,"[0.0, 0.04451526398222919, 0.04382444581689441, 0.04157526177821713, 0.06465421507620722, 0.06531318530642378, 0.06061601025118056, 0.04184212767615476, 0.030656929533620418, 0.02888596239147535, 0.0036898077328069746, 0.01763945388169111, 0.05242667451556615, 0.044522622494271996, 0.0412455259645778, 0.07223520525192492, 0.08276547633736978, 0.10634951532289733, 0.12325673053293987, 0.12318916924886254, 0.11980526880265088, 0.14760421178717142, 0.16827769417721403, 0.18290200396132295, 0.20420906610574746, 0.22207682776083096, 0.2640677941930274, 0.31665082075246037, 0.31304806958631154, 0.3313841407362279, 0.3043775460643432, 0.3382620487715492, 0.38319010010742033, 0.4191449999872756, 0.4972417899132825, 0.4854665667202896, 0.46243009938501867, 0.4608691260793366, 0.4587503386540831, 0.46648020561403775, 0.48327088895788206, 0.44890133486600325, 0.4422093888257697, 0.45698219828094133, 0.4471019354535306, 0.43696008298304484, 0.42307530709860686, 0.43034062910822685, 0.46271111228955525, 0.43226519645307027, 0.41264613683196444, 0.4633709034857369, 0.46595184023373126, 0.4769475387446108, 0.5058795438512476]",False,0.6000,0.4000,0.5000,0.1000,0.2000,0.0100,2.0000
33,go,Hit,1,1.0900,"[0.0, 0.025479386438412584, 0.042320904925252895, 0.03733761739727362, 0.023835976812004257, 0.023629289874808095, 0.027008786670960655, 0.03948778615674381, 0.043167006177936444, 0.014586992898855379, -0.0022361848477323934, 0.02411514686976894, 0.0711717262316238, 0.0755393325139116, 0.08279904695759, 0.08366194378241207, 0.1262836135658005, 0.11230020586415627, 0.14888440475713144, 0.15725580947978193, 0.1666540259886988, 0.19943241364150874, 0.19310765152486342, 0.17512927289748773, 0.18787643731827636, 0.1769957556034082, 0.21651841461630641, 0.22147744662864602, 0.21898113626740906, 0.23613329986180484, 0.23713700696992043, 0.2751746494243225, 0.2833953313228254, 0.2665784304274223, 0.2689849163262323, 0.2677080661828864, 0.304993436237975, 0.3150313785576696, 0.3083307127769666, 0.30586620909065715, 0.30482382065425784, 0.3365894087893957, 0.31884779225564197, 0.3322725599132248, 0.32236305412166344, 0.30759189856627567, 0.31346116626308373, 0.3274768795357723, 0.3178066471176781, 0.3132058338804363, 0.30331122251940595, 0.27263986297295195, 0.3166603445251127, 0.3365608255034986, 0.33898012791089166, 0.32523834858133227, 0.3246083161085383, 0.3585031287801096, 0.3567380978623252, 0.39181708766308665, 0.3614030311106383, 0.3474093173626264, 0.32925792414163335, 0.3389644579377572, 0.3441361659132711, 0.37873896349773617, 0.35620443893808934, 0.3501210212472536, 0.3935257583953274, 0.3822013851314702, 0.39277301612066734, 0.397294387240626, 0.37076697074008474, 0.3747009380859066, 0.3636406052658797, 0.3550395456288582, 0.34954342428767843, 0.3764560455610426, 0.37989867973755576, 0.41322457067690455, 0.4409650652201001, 0.41668708360248163, 0.4092699505390248, 0.42593280330981, 0.4470828575334191, 0.4518652687925354, 0.4480161593583623, 0.4483579137390113, 0.4391531067871284, 0.4507985474722729, 0.42880615138500894, 0.43463532824183976, 0.46487122895984434, 0.45702052697318485, 0.46585948382422376, 0.4985249237356583, 0.4807910984844449, 0.47120943426882034, 0.4662687903248022, 0.5144772999639249]",False,0.6000,0.4000,0.5000,0.1000,0.2000,0.0100,2.0000
34,go,Hit,1,1.7900,"[0.0, -0.00238160706231722, -0.013499819478950206, -0.040731780702775625, -0.006662533132904658, -0.0011160696117617453, -0.027209062936931035, -0.025548098094944488, 0.004356423221564425, 0.008211753957885365, 0.04396094334852668, 0.027181233262857894, 0.03973330872569592, 0.06413493180873306, 0.1040252181331584, 0.07013010180711063, 0.06394670109106017, 0.0630163794158485, 0.02613609220400679, 0.020767388553210767, 0.048468563734253164, 0.03813901547842166, 0.012186975874620642, 0.0140545308003924, 0.0013460187125873702, -0.0018455297413962936, 0.023246711966905583, -0.010252098838403705, -0.010544046897038115, -0.020374963554691226, -0.008363700626979624, -0.010011703603872515, -0.02012387783502835, 0.012246775316432736, 0.03272438891809284, 0.040791766129458146, 0.06660840578753403, 0.0906789391885661, 0.1054803263293546, 0.15903907155084, 0.14488852270228517, 0.1475765191312957, 0.1705316754677561, 0.12476098964567753, 0.13207981632309704, 0.14673342427645214, 0.1387111981510869, 0.1715120675296645, 0.1634896430782305, 0.15828977443161787, 0.17033609777771713, 0.19023701171056331, 0.19340000613999375, 0.20844745371917697, 0.20776305009237672, 0.20936508492687378, 0.22813748624195077, 0.2283992353350471, 0.24565544340471493, 0.23522012511550386, 0.255410746257885, 0.276792532331659, 0.2779396369175282, 0.29058431102410753, 0.3386695707129093, 0.3307741206142967, 0.3325808634803075, 0.3326666735168204, 0.3353090712784556, 0.3701449830472092, 0.3806801983519678, 0.3422174609714671, 0.3101844686529938, 0.3027468015045186, 0.3169210814427016, 0.31331277994242646, 0.3293225474154184, 0.3282137554113012, 0.31015905535552796, 0.32455900403946486, 0.3294903982263033, 0.34111764900634983, 0.3736890923121095, 0.3805359062968863, 0.3896774115551508, 0.3942276022614787, 0.40773456647578754, 0.4238496836811374, 0.4202549429442875, 0.421340109719174, 0.427498245827122, 0.4179399694314719, 0.43554981992615366, 0.3706313856764167, 0.36342710349731344, 0.36925298858695993, 0.3501333860640701, 0.36075128205263857, 0.3585871663922447, 0.36589012943939864, 0.35450107630886035, 0.337354237278638, 0.32976093604782936, 0.36208758246124445, 0.36893682529377586, 0.38398168225052637, 0.4162876902922154, 0.4227679112179179, 0.40594571993092876, 0.40425578350069336, 0.4287775401322482, 0.425532885997106, 0.4060853436444154, 0.40177047300602375, 0.40499962073870216, 0.41063783156794986, 0.40704552419136036, 0.42426185368132036, 0.44330083042132806, 0.42003579503441246, 0.4190989864833038, 0.4033316042599974, 0.40026551594679594, 0.40004778255229534, 0.37905009081441937, 0.3790159611595657, 0.3940963951787007, 0.37424956177641966, 0.3840847637189399, 0.38722456667314953, 0.371671825969384, 0.3650930508984509, 0.3794574858070364, 0.4084501223488065, 0.41339226202894674, 0.42603126751146697, 0.4057204319332083, 0.3972215231593639, 0.41429228503821414, 0.4013075613009895, 0.38552567300107893, 0.39701702552316465, 0.3957323083545572, 0.37286100064746164, 0.3501709666796756, 0.4018445062265271, 0.39047722285665787, 0.388886038510537, 0.3961006184361518, 0.3907267255635347, 0.36829502691158883, 0.3826594677480306, 0.3898429457347084, 0.41085511465163005, 0.39607207155139174, 0.3731833706614663, 0.39918813294673294, 0.38365730662973213, 0.4357269539872731, 0.41204124770980194, 0.38729207296784784, 0.40373650539389494, 0.3889147287318059, 0.39084038603344934, 0.41690890060958974, 0.4078680691328885, 0.42371798695115165, 0.46395453750278637, 0.4911413042682252, 0.5121707380412173]",False,0.6000,0.4000,0.5000,0.1000,0.2000,0.0100,2.0000
35,nogo,Correct Rejection,0,2.0000,"[0.0, -0.03312234696811227, -0.027946336328751795, -0.0038529942258553156, 0.02260001891580604, 0.035938928617668814, 0.03611263495594186, 0.05447174511418837, 0.05628348502082942, 0.021775518340838462, -0.01344169572565998, -0.013619890484327057, -0.04417163378600277, -0.025217010746981856, -0.06688826206461002, -0.10747846656146323, -0.1495614380812188, -0.16504365832840026, -0.15209441730996162, -0.16189118048587559, -0.160749947165596, -0.15781075792681087, -0.16744047382489913, -0.14627859577615446, -0.13439851781514922, -0.1318369073695971, -0.1321176364468936, -0.16706888533763936, -0.17666071201533928, -0.18309490999056022, -0.18203645787813322, -0.16209873511584233, -0.18183111392066695, -0.16069573182812397, -0.17234703526995404, -0.16323276848104357, -0.2081720210268594, -0.1716392372986507, -0.16206842319925557, -0.17868178251386208, -0.17082439985250236, -0.20928932332825428, -0.20114763768452185, -0.18430201576508715, -0.17465124574631744, -0.20517826207231576, -0.17705197262324393, -0.1421515953810079, -0.1136220292692072, -0.1511464137226223, -0.15295312165193015, -0.14447128616985094, -0.15271304118050522, -0.14065469438279682, -0.1444688273860246, -0.13320555649574953, -0.12164305790111687, -0.11410628091264463, -0.1303788076931969, -0.15050545006482038, -0.15977010259860408, -0.16201213862943412, -0.12424810043804091, -0.12763910506217205, -0.14146547626131778, -0.14585252004691368, -0.11756565604154533, -0.10849320300159872, -0.13313493203728968, -0.11573553300809448, -0.12934237043458727, -0.12761876908804873, -0.08811343830941945, -0.07626567752060358, -0.0712925691723817, -0.08680098664412329, -0.11916164001771827, -0.11204851710308575, -0.10485782718585913, -0.12375330234202449, -0.13930132149805377, -0.18930714093138268, -0.18564568259198094, -0.19423101072659343, -0.24348645025209553, -0.2661917334133552, -0.25211159993871807, -0.2502908888028743, -0.2316498951046276, -0.2307906740904979, -0.226107738579304, -0.23357301057306906, -0.21946412469683632, -0.2328475323575071, -0.21270543898219157, -0.22035491498274076, -0.22186812188248617, -0.21882510497149937, -0.2575455110165233, -0.2570294398799523, -0.26647992156596634, -0.2720855109072665, -0.27972589404828363, -0.2970555441157727, -0.28851172100925104, -0.2805762158855402, -0.31459008592193316, -0.3189558139953722, -0.2998108451452646, -0.2950913607723202, -0.2671020894136401, -0.2857374027464093, -0.2997569965517968, -0.3273456485117942, -0.3294723332732313, -0.3483153635251998, -0.3750276169912518, -0.39521982943443434, -0.40602372432571615, -0.4201782287848286, -0.424955730397446, -0.43918833192569745, -0.44842816974111815, -0.4419749991246766, -0.40924754094044324, -0.4158838902224794, -0.41486805929748244, -0.4441544622123642, -0.42291147958988534, -0.4079485238937093, -0.42356365832867743, -0.4183971761065285, -0.41471416947815765, -0.403268736328396, -0.4517245794074222, -0.4493368082715984, -0.44178681266448033, -0.4931254317378313, -0.5037411428742613, -0.49282389644737185, -0.4970231544674175, -0.5059138359432337, -0.504470484836843, -0.5374508383093031, -0.5371776632237326, -0.5296407461891525, -0.5286562886822972, -0.5191439639737312, -0.5062943219934027, -0.50553675559119, -0.4832573820347168, -0.4756092501537258, -0.4909254987338538, -0.5010896890695794, -0.48880454248189925, -0.46715564758961137, -0.4768928495807077, -0.43736900606665235, -0.4730728644265747, -0.5206678009808355, -0.5239585016725368, -0.5304552793548761, -0.548550547485482, -0.52556463603627, -0.49996163724976206, -0.4751473110166861, -0.44216321437106365, -0.4663456837164421, -0.46566096002755275, -0.46125205225014115, -0.46287429966380145, -0.4764936251526667, -0.505083093965306, -0.5116816821519488, -0.4909019534740127, -0.47715855467642493, -0.5206375336335023, -0.5366580001224023, -0.5415492904462207, -0.5524910086791793, -0.5276344728289721, -0.5198575904541315, -0.5194785780180626, -0.5457695734890828, -0.5392547253523978, -0.5495306475742392, -0.5427599485353601, -0.5675329021109904, -0.593518285234107, -0.6012085375518864, -0.6262607916368079]",True,0.6000,0.4000,0.5000,0.1000,0.2000,0.0100,2.0000
36,go,Hit,1,1.1200,"[0.0, 0.011778151003594802, 0.0247512346975029, 0.003238664567563866, 0.027572405102248558, 0.05836934185166509, 0.02967617139726056, 0.024289783101376368, 0.03058765020211187, 0.016932547343308818, 0.033128722915154785, 0.05431312028020836, 0.05700980106244511, 0.0731213187853805, 0.11024927364929549, 0.12403929009406602, 0.1054271059287892, 0.12199347903948811, 0.1396061748598865, 0.15707584742019579, 0.19231055844901504, 0.17459978157996536, 0.14399521153802372, 0.13720921857497118, 0.1380686999154919, 0.1671354281176253, 0.13468304150832464, 0.12480205759498239, 0.14677015589201756, 0.17449257096842588, 0.17071696744064246, 0.18216031340818536, 0.14993223675377232, 0.16446967989045563, 0.16623198100949915, 0.2022833624951128, 0.2225985999545434, 0.23155465173360668, 0.2548528770019832, 0.2600103060593018, 0.2412687748166843, 0.22922865281861984, 0.22046654379179811, 0.24325456429630715, 0.23035413617405226, 0.2562368873920968, 0.2751880351469648, 0.2756534194634127, 0.256635786785405, 0.2656598398871422, 0.2871674155694756, 0.3244625831475488, 0.3114802632857098, 0.319791127136771, 0.32060447737049075, 0.2942878550182452, 0.2963872675063272, 0.3244684414875315, 0.32449214440066687, 0.33631560243211944, 0.3571223076405612, 0.3734980936907213, 0.37609209485363065, 0.3859243463948512, 0.35989767637186143, 0.36415913769291947, 0.37774220057187535, 0.3874726383633587, 0.3855257349215037, 0.4069408538987869, 0.3962320725384121, 0.39159213921783614, 0.3468379677936751, 0.36910918932699155, 0.38444054274058587, 0.40992114706379335, 0.4439398325075201, 0.4468788925988604, 0.41702511924266794, 0.40959336432782784, 0.43603374737590167, 0.45860617182984403, 0.439743331692758, 0.42355416803959006, 0.4087833893723294, 0.3983596932113237, 0.392474885069814, 0.42086560084377334, 0.40902198738086776, 0.391334548640988, 0.40674345646505533, 0.4089715850588648, 0.4419683381278647, 0.45910503451985124, 0.4641565618754285, 0.48810004726230344, 0.4869286950652431, 0.46899669573395525, 0.4720171310721514, 0.4684093590577945, 0.48259386817443717, 0.4976830533750015, 0.5225413581564827]",False,0.6000,0.4000,0.5000,0.1000,0.2000,0.0100,2.0000
37,go,Hit,1,0.8100,"[0.0, 0.02403583481397443, 0.03483897144808146, 0.048991365136775364, 0.07016824312821876, 0.051098184530054096, 0.038683815108819075, 0.022562104011390124, 0.06116463800418233, 0.06371935514224572, 0.09570755197199024, 0.11171654250177568, 0.16437482866674893, 0.1577052555755571, 0.19056361874420438, 0.19022515635683424, 0.2502715045059441, 0.22518717770728813, 0.21846522670708507, 0.2341108832966215, 0.2665564573755147, 0.29510566954455036, 0.3024663424551338, 0.32571170483530176, 0.3286595548051416, 0.36693482273794403, 0.35721507832719407, 0.33651351672309554, 0.37570298395815116, 0.37458444562650184, 0.39056382054614225, 0.3794353858688459, 0.3824344064872754, 0.3328873914301339, 0.32198302785974525, 0.3081719167833495, 0.28326220224427356, 0.31143973122585555, 0.32048954767029125, 0.3248210196069922, 0.3607206849976095, 0.3597018099601222, 0.386023208004982, 0.39934267325320005, 0.4214725662877817, 0.4377513570373487, 0.4409194920587555, 0.44629810050764596, 0.42184272163251, 0.40387169105145343, 0.4156758945610097, 0.4464940419547282, 0.45598416476069337, 0.4459559456547947, 0.442654754738866, 0.4503304923278368, 0.47170605089643647, 0.449896843489099, 0.4267218476706309, 0.4169283610400564, 0.43659314634084956, 0.4414576545953067, 0.45630765532629824, 0.4656335832650846, 0.4590371712424432, 0.4596903523172747, 0.45018450738995625, 0.47276176584731566, 0.4530305853725088, 0.4700266806237511, 0.4952669194442158, 0.5018761681607592]",False,0.6000,0.4000,0.5000,0.1000,0.2000,0.0100,2.0000
38,go,Hit,1,0.8200,"[0.0, -0.005877568092220474, -0.0067950565682139705, 0.009893038204708576, 0.0420874296934538, 0.05253248977881016, 0.007475137912575619, -0.006919499904854505, 0.006079138502086015, 0.034664705775103714, 0.01634864332703577, 0.03571720427559903, 0.04900398016347403, 0.03684005005826647, 0.02089383142427964, 0.015283980547921636, 0.02505580014904707, 0.045371234450682495, 0.050377378318798405, 0.0770588508396062, 0.09011652743670781, 0.12895550364120703, 0.1292433317172844, 0.15128642040434107, 0.17251471196057455, 0.21371073453798534, 0.23270878240753523, 0.2667025591019719, 0.244329688827839, 0.23639696221449633, 0.23123238799941678, 0.23850995095292046, 0.22691165879484004, 0.21417413938067212, 0.2504649030373697, 0.2723150316930653, 0.29040210282379714, 0.329737586746247, 0.32882407797535895, 0.32006581185357397, 0.32213689964125247, 0.3401715025108696, 0.35160746399348825, 0.34727994640336485, 0.3414002649246617, 0.3549739759393934, 0.35228423551458315, 0.33085443125233865, 0.374662386171039, 0.3932752038734756, 0.3919500056788007, 0.42175390128433815, 0.42317064123612796, 0.41971944937313843, 0.45410816850138996, 0.4607034602431367, 0.4801714071998031, 0.47825679650650893, 0.48843685414666904, 0.4844721850000114, 0.46912150575562106, 0.4481847344303768, 0.45932925280016396, 0.4706989683441127, 0.4900754698389452, 0.485553143591163, 0.4841379020803061, 0.4714542211470271, 0.4879242252518534, 0.4839207708448428, 0.4828597342569171, 0.4970682243610965, 0.5378793501282291]",False,0.6000,0.4000,0.5000,0.1000,0.2000,0.0100,2.0000
