trial,stimulus,outcome,choice,rt,trace,timeout,w_s,w_n,threshold_a,t,noise_std_dev,dt,max_time
0,go,Hit,1,0.8000,"[0.0, 0.004282276980234901, -0.0034967407963638645, -0.019813440968292507, -0.06391009287784265, -0.05937998867820409, -0.045964148149826974, -0.04243307121062562, -0.018089639979594237, -0.037775336550842045, -0.021871534420478504, -0.008516130120137164, 0.012076298839577556, 0.014368062950692486, 0.04144019867480309, 0.057871972923293144, 0.06969096181567361, 0.05653699055902108, 0.05015881748580903, 0.05717931269791249, 0.05822480012623906, 0.06389898517802198, 0.05854131300705505, 0.06460522790321366, 0.02370200095720766, 0.03441109146720733, 0.06586149677652342, 0.06246510891812618, 0.03156027640954332, 0.03507071862756217, 0.024947902960535284, 0.04290678003702977, 0.07566862236652572, 0.07166520125442274, 0.08514520234157498, 0.11272283775043741, 0.12552943956885304, 0.15181354631873414, 0.15886421475554782, 0.19191000529220018, 0.20800261987732677, 0.2450075261116664, 0.26411001101767334, 0.2652356964635493, 0.29768749060068617, 0.25595421412380925, 0.290061716246426, 0.3019645965735349, 0.3121358909898479, 0.3217316410485286, 0.33931638301276595, 0.3317707476907424, 0.34006672323617687, 0.36504919225459687, 0.36605573628503596, 0.35025071166668503, 0.37412061261687535, 0.39804619498830135, 0.38473121640172686, 0.3987788933678849, 0.40447064997855275, 0.3982757112517925, 0.4069981305474419, 0.39568455371445455, 0.4236609545348103, 0.4249603817856269, 0.43586618782719355, 0.43600383024134914, 0.4771786771564931, 0.4949266776479083, 0.5158852380632118]",False,0.6000,0.4000,0.5000,0.1000,0.2000,0.0100,2.0000
1,nogo,Correct Rejection,0,2.0000,"[0.0, -0.014891281978005213, -0.03686437238848118, -0.07003061008770528, -0.09785988828301434, -0.08226077348551422, -0.07815863000644463, -0.10621268635059004, -0.12847205824514715, -0.14966286707629725, -0.16342190147167354, -0.15549852876334608, -0.15903232874945086, -0.16967709994378238, -0.17133655372049, -0.15084907780989462, -0.14328761245136526, -0.10007441138904107, -0.10295657836143, -0.11727978573115784, -0.11199286220336366, -0.11631835664573528, -0.15701925181892012, -0.17273937996883393, -0.170919010214868, -0.16579401214395062, -0.15603897612026757, -0.17089279991796852, -0.1348726970015271, -0.1218451375883122, -0.14830166565356587, -0.14987151385274403, -0.1713375663257605, -0.18945108734830027, -0.1982959375283008, -0.24346906036574983, -0.23200874243914504, -0.24883312017948137, -0.2355867111312405, -0.2707869328823324, -0.30104071480888633, -0.3034530237633231, -0.29868332729205066, -0.3244280507494139, -0.32129872108789076, -0.32204283603117206, -0.33702867220936816, -0.3313573096893638, -0.3303281071968279, -0.3018388901973826, -0.28082128150753327, -0.3124017891446824, -0.29698628088212464, -0.32736850094075176, -0.34373980855567093, -0.35426508684945823, -0.3477672721979756, -0.34597164432555544, -0.3646330106920548, -0.381149984478182, -0.39093029974938687, -0.3804338991168144, -0.38739865430006626, -0.3884713061625669, -0.3817019359556712, -0.36014435522879484, -0.3456417774628849, -0.3656749395316435, -0.3982891295236614, -0.3939027406296821, -0.40215650893022664, -0.4034575931353107, -0.3874654617212834, -0.4015540019607833, -0.4018387048042031, -0.40766773611297, -0.4194429646911641, -0.4226293635515737, -0.4225007847478311, -0.43825953787610017, -0.46021915581217204, -0.4709500872478912, -0.42949732229566867, -0.4155407387668697, -0.4153839032581864, -0.4423670125585194, -0.43648833943783405, -0.45677043469824236, -0.4630340684845925, -0.4720384020602857, -0.458242526172322, -0.4811514001967597, -0.472038034287099, -0.4882549666009385, -0.4836322819095848, -0.5086837926252832, -0.48642390636837385, -0.49472650929064715, -0.47017726934674736, -0.4835563811883917, -0.502788836030978, -0.4936909028598199, -0.5313226836172471, -0.5466659348186583, -0.5626020837611369, -0.5896741081093548, -0.5920144044644047, -0.5642323978199523, -0.5841063988505947, -0.6096015829428676, -0.6165255225410704, -0.646431337203003, -0.6371154410434205, -0.6374833591251611, -0.6526156747988806, -0.6635299178863993, -0.6548495182406576, -0.6694903027185881, -0.6955705990780361, -0.7078403645899476, -0.715338329038302, -0.7149352437814497, -0.7470881586754862, -0.7323485638845185, -0.7156497746855113, -0.740111286839802, -0.7526905065588082, -0.7341254643209459, -0.7353290393717928, -0.7564416597739638, -0.7688161619225106, -0.7694173482868457, -0.7385798077258645, -0.7145922659373786, -0.7090385806217148, -0.7198630447119141, -0.7713446375987704, -0.7535460942256721, -0.7429761486913983, -0.7447029926324437, -0.7387932918147431, -0.7639343430668016, -0.777743548776163, -0.762085731703708, -0.7848821006944139, -0.7906217431473429, -0.7785404464492371, -0.7884085522013562, -0.7987078069510058, -0.8044817694762515, -0.8280844348541128, -0.7841348985774114, -0.7582515175397339, -0.7756343223160059, -0.7610232903630574, -0.7819392783476448, -0.7585032467151354, -0.7863553086974537, -0.7838178675135803, -0.7808560080625909, -0.8035534737757634, -0.8021482448390003, -0.7920556090814208, -0.7844635637188689, -0.788788644313766, -0.8182853504141602, -0.8066599178656906, -0.8170826092444934, -0.8249129078647411, -0.8105715158422417, -0.7671685444179562, -0.81572979563538, -0.8057392705398395, -0.8323813671829351, -0.8325265565075584, -0.8216452895099259, -0.8327853290495227, -0.8611091699313811, -0.8763817493235206, -0.8921249763828909, -0.8757866415843224, -0.9197898884919566, -0.9303777363687332, -0.9372696252272976, -0.9272646255659949, -0.920058590888581, -0.9281060848276135, -0.9473963871024822, -0.9554534739525974, -0.995737315486502, -0.9670492056611601]",True,0.6000,0.4000,0.5000,0.1000,0.2000,0.0100,2.0000
2,go,Hit,1,1.1100,"[0.0, 0.0400938381631359, 0.03548997080744681, 0.04057847011376454, 0.03799646058937694, 0.03665530156188759, 0.07291819661176371, 0.09974274780128367, 0.11956569285112335, 0.13095941738616013, 0.1344289734831263, 0.10363443179133736, 0.1164450844849772, 0.07512894712267015, 0.09145361405825617, 0.0698047145824932, 0.06301003403508006, 0.06213614764943602, 0.05607849593990651, 0.0491917550613202, 0.0728356459925586, 0.07040592393337307, 0.06992820811921852, 0.06256640312676182, 0.04188345588987638, 0.005502695481025638, 0.025518290594575957, 0.02468795172500541, 0.02232464519863682, 0.04093804446704313, 0.07670077019212071, 0.10964615875225044, 0.15553839484968388, 0.1364491837663701, 0.14615075107505957, 0.15043110443662674, 0.15782031769167656, 0.1362663360363788, 0.17741059449485513, 0.15801692482906687, 0.13201617415871522, 0.13178755643443973, 0.11945382862493621, 0.09515050390510368, 0.09739646452051702, 0.09062159047950188, 0.09282760854118895, 0.0856120366015571, 0.05732810228920614, 0.028989423291054466, 0.053150787637701855, 0.07736821436048197, 0.06494043095671254, 0.059248697674635455, 0.08681698991939019, 0.10134011194329626, 0.10612666814154077, 0.09178165455387563, 0.06542320388316389, 0.09022088869886807, 0.08942634777179109, 0.10628183701907988, 0.11502169702040262, 0.09262976094784772, 0.069179367205642, 0.10029445091318656, 0.08136431721179374, 0.0989841890863742, 0.11597143828947781, 0.11483933019551397, 0.11096997568720968, 0.12813826441407997, 0.13453434486489957, 0.15798238471344783, 0.20023484064102903, 0.19280272490660022, 0.17681554528873789, 0.17001445423800304, 0.1845622180046921, 0.1928489256676846, 0.2709485006453109, 0.2736461728632195, 0.2595189693128908, 0.25584412038268817, 0.2550635301188093, 0.2454163987822676, 0.2347356014290682, 0.2257044701073601, 0.23925607946850388, 0.22747662536764787, 0.2541584232391421, 0.26167772938526374, 0.2702927535068723, 0.31692351937793684, 0.33833785227531316, 0.39484100285714435, 0.4000890148291134, 0.45766522113409747, 0.4707088514185813, 0.4466397254083397, 0.4821506158412339, 0.5172682016842371]",False,0.6000,0.4000,0.5000,0.1000,0.2000,0.0100,2.0000
3,go,Hit,1,0.9500,"[0.0, -0.009195501808848709, 0.040014429921252995, 0.049075784266447875, 0.09149158181080053, 0.07707673757889631, 0.09784259217650784, 0.08261980223723459, 0.08090133455442639, 0.08724891979371986, 0.09641811371057725, 0.11240916618012786, 0.0802100296334492, 0.07096082214658687, 0.10447164931621031, 0.08473846569759771, 0.09429142934468651, 0.05872710479297595, 0.07965083805232329, 0.05853869824814672, 0.07038452017094557, 0.07140831225905231, 0.07667277203857759, 0.08823361455581201, 0.10047480229466182, 0.10211238882824591, 0.1274712381098161, 0.10407799597264056, 0.08698827815510171, 0.10196202266702278, 0.12693835084811367, 0.12071221070975796, 0.1494854413657158, 0.16647065854470294, 0.17364512100853627, 0.1817543716042179, 0.1736391649882482, 0.14960061303387429, 0.206149910002931, 0.21803773378636643, 0.2423643713327403, 0.26233918833597464, 0.2614582928038952, 0.2737858101184986, 0.28018804636117867, 0.2935499597150512, 0.2884636771373704, 0.3016575630001808, 0.30875522160875946, 0.28619065938815724, 0.29348278662340166, 0.3086461872051868, 0.31335620117504537, 0.30083689576074996, 0.3131066476893736, 0.3445220572812556, 0.3336913227080943, 0.35152302154781895, 0.36542864377544587, 0.3677277666567368, 0.38563707708229367, 0.4212391600165608, 0.444015382302058, 0.4512258846781136, 0.4381465867451233, 0.45281072929140753, 0.43665454743292886, 0.42575479329304744, 0.44051472581900886, 0.4456371976950584, 0.4422187715690006, 0.4699573574066044, 0.47331816702547774, 0.47522138338782677, 0.443132402329115, 0.44459578131241734, 0.446536440954463, 0.41711681080763685, 0.38733396760127664, 0.38704542256682123, 0.37475982708867184, 0.3736220142090787, 0.4026635101676044, 0.43031336192918435, 0.4762908642782299, 0.5106858097453102]",False,0.6000,0.4000,0.5000,0.1000,0.2000,0.0100,2.0000
4,go,Hit,1,0.8600,"[0.0, 0.0079217611943884, 0.015770335689094837, 0.022132892767505963, 0.02585123591157274, 0.03319208411078779, 0.037951733178534765, 0.04740466824940423, 0.067503969953039, 0.07113532987841543, 0.09004657440480848, 0.11825019290160974, 0.12929619367462214, 0.13751423710002073, 0.17071272536958887, 0.184278034098572, 0.17026195312574965, 0.19142380777713078, 0.1826978619153486, 0.19630316228668368, 0.21447154409023889, 0.22074004370774444, 0.2619826522313217, 0.2677615586065869, 0.26137290416784553, 0.2566918773839948, 0.27837205240856044, 0.27259997618115583, 0.2774701475571951, 0.2987545341011637, 0.2939081385236898, 0.27882061844138994, 0.2719538379763516, 0.2699379968626805, 0.28360661709897533, 0.30509621794884834, 0.29595095251164943, 0.283831500883642, 0.22724340025800405, 0.2560149384821959, 0.27915673457938117, 0.2393592139785688, 0.2667836856996694, 0.27430060610788, 0.2851697454294392, 0.3185599334156088, 0.30472680540817987, 0.32276342036601247, 0.3107294434925437, 0.30607142172419, 0.2726186339660628, 0.23568839318216162, 0.25028692605357017, 0.23281430787000654, 0.2541720581616845, 0.29125704671028474, 0.3243357640363389, 0.3197137785644425, 0.3374039659271528, 0.3498915187631074, 0.3736313641022858, 0.38944293537323676, 0.42581284276856834, 0.4301353390021377, 0.4612197387018284, 0.4514573619242323, 0.4159426652482509, 0.43168790190764067, 0.4141158769035425, 0.43537487779744377, 0.43269066458468664, 0.43935458927384485, 0.4503739341798375, 0.47237358658322415, 0.47974877505057967, 0.47991038990011803, 0.5040568548151827]",False,0.6000,0.4000,0.5000,0.1000,0.2000,0.0100,2.0000
5,go,Hit,1,0.9400,"[0.0, -0.00713927745039639, -0.019461245729511065, 0.016398601013769235, 0.023545424149587903, 0.00759937461317085, -0.008890093417392091, -0.003763786979329777, 0.029518631994495045, 0.011559900940596453, 0.03672092193595516, 0.04163124127702387, 0.02193687942678217, -0.015553872582821662, -0.021661221491133583, 0.0070279366719654575, 0.03510252437743412, 0.048933822966643864, 0.062276907621329064, 0.05273902926570362, 0.06755474028794399, 0.04745446497781023, 0.042360244108916284, 0.06898523772442346, 0.05750805611323486, 0.08444839806014143, 0.12154724988676406, 0.17097597615294827, 0.20240666518361658, 0.23150197014133858, 0.29877850891016355, 0.28093002968952024, 0.27143337493767616, 0.281563894916955, 0.28559642461772966, 0.31157097771665127, 0.31990382807551954, 0.2914287762400526, 0.2670927477926486, 0.2618314320922539, 0.29934227698818877, 0.31809798699776, 0.28600973997351403, 0.2701422927708022, 0.28600178943341004, 0.3002947385274246, 0.2828200739797767, 0.29594243078751864, 0.2908893967542058, 0.33659291607217584, 0.32403082103664776, 0.33747387638685294, 0.33662637262304895, 0.34524848267492525, 0.33868471745881706, 0.3308153388095957, 0.34551306938530746, 0.3353897675763325, 0.31093812939886967, 0.33049273768618836, 0.33573189952620747, 0.36581423409303665, 0.3494562788091875, 0.3758367465018008, 0.398456823998052, 0.36691045244181797, 0.36828348588516, 0.3808064700395504, 0.3975047662617776, 0.41180483093037606, 0.42646735358017285, 0.4484739882210146, 0.4527921323940456, 0.4643539248775366, 0.44993049919875777, 0.42411909769502665, 0.4518448846117435, 0.4681419099786167, 0.43461361160584583, 0.45051025461465527, 0.47230281376044553, 0.488123420240445, 0.48316631115847797, 0.48374157851795024, 0.503520317787183]",False,0.6000,0.4000,0.5000,0.1000,0.2000,0.0100,2.0000
6,go,Hit,1,1.5600,"[0.0, -0.03249809972549554, -0.008612435581861623, -0.03403702622426946, 0.024283113697936363, 0.006731090054413601, 0.012345797656496665, 0.010766680406584416, -0.006510876620532385, -0.013721958771815847, -0.010883796533367131, -0.011536644932698603, 0.005774509158398661, -0.02352484528278541, -0.017923037786616663, -0.016899134114591, -0.006724719719993246, -0.02012147106945327, -0.01225284024134809, -0.03877130826479177, -0.0546524720404415, -0.02781190628603955, -0.02495637656188062, -0.030456835953646913, -0.03995344787091899, -0.05392848335194941, -0.04719274454468697, -0.017326820684469217, -0.02895069679219834, -0.0759304052609128, -0.06510928309140623, -0.09033395085858091, -0.07232269723048083, -0.07771823230700903, -0.10321479043410689, -0.08066371507109976, -0.07462324268089801, -0.06801781662208968, -0.08432233740126235, -0.06764202852458526, -0.06179432334160311, -0.06309827281066348, -0.06969209439279185, -0.08007529713518702, -0.09062416302795338, -0.10356878593056429, -0.09535106169820101, -0.09966299503527265, -0.12063133603885236, -0.13282282439808524, -0.12481363524801073, -0.13102517639182992, -0.14852971297174375, -0.07609529286954923, -0.059717983565401894, -0.058096768430900905, -0.06661293677860157, -0.018185059605220592, 0.010657286034747575, 0.03266811797275488, 0.029350576137122497, 0.015177149365775385, 0.008754761910785398, 0.024978637532514766, 0.06155039832964941, 0.04517096266523801, 0.05395214633115365, 0.01869137337104458, 0.027524030165446786, 0.00736920589524416, -0.0017230120937271887, 0.0012252218621803188, 0.015965840777081082, 0.004596424241576974, 0.020001556650509587, -0.0018798880762344108, 0.024442973369095768, 0.012876399049604666, 0.02983120675575056, 0.05038693391534838, 0.047314982967498344, 0.041229759172871416, 0.04007091505481901, 0.039615660770608824, 0.02113647299772138, 0.04068934605357741, 0.071015418006914, 0.08527819784297727, 0.060981728940678825, 0.08877192349515793, 0.1095689874332233, 0.09627399947038903, 0.13976291342705885, 0.11402313367657885, 0.13225026085347363, 0.14941202896442543, 0.16570461798237987, 0.20064269998290038, 0.18465945453370453, 0.22460996410853884, 0.22835851086200765, 0.21726786975025011, 0.22701000739359872, 0.23892182663058084, 0.2512160955076227, 0.25089810452003164, 0.23852975832611922, 0.2702112004704338, 0.2558203096572394, 0.27286170576552177, 0.2686707272637727, 0.2987015454157397, 0.3319232836922021, 0.34089607487220824, 0.33407784964430637, 0.34393807922359376, 0.34068399656798976, 0.3354737784586563, 0.35088848510550097, 0.3243588473997677, 0.3702879307203183, 0.369023205246906, 0.3395878113816842, 0.34859726077875447, 0.3519953840447809, 0.3437641515746896, 0.3257355559704413, 0.31921637478739734, 0.32109861748437496, 0.33159041171734877, 0.3451067668660659, 0.35064462277554587, 0.38281035031450733, 0.4055645705243746, 0.4265499144044702, 0.46129348605369314, 0.44106738438139437, 0.45041858171464677, 0.42565312946521855, 0.4520611483717134, 0.44320696506629426, 0.4705266048560064, 0.4603353385006526, 0.47833823464204867, 0.48491391512043175, 0.4927334456496037, 0.5131081674093599]",False,0.6000,0.4000,0.5000,0.1000,0.2000,0.0100,2.0000
7,nogo,Correct Rejection,0,2.0000,"[0.0, -0.006650052501037038, -0.008922922810804427, -0.020020561670497615, -0.007892892222552723, -0.0331816479572967, -0.04343206726426052, -0.06053808829920214, -0.04869555207631179, -0.05006228577987266, -0.041558805098984415, -0.025295861796083535, -0.02593120499716814, -0.032850076987976345, -0.029962906016921143, -0.02863548898557408, -0.05382085376661486, -0.044875344794233794, -0.041007824840635865, -0.028985341688321824, -0.07587674111602091, -0.07750201800088645, -0.06549132699834555, -0.06836222590308393, -0.07811593988739794, -0.08167576246915292, -0.11249039211076071, -0.12490539293244131, -0.08918058533348694, -0.0934343735224517, -0.042756403510856175, -0.039987205955408, -0.031142983123144806, -0.029945557758527357, -0.04789511202275903, -0.05729329052966601, -0.04723394160884782, -0.04127647211836113, -0.0376532024367767, -0.03744794615710306, -0.06913909067797223, -0.06939900149368143, -0.05723148712368333, -0.04924891758242617, -0.07846722443046862, -0.0915527005870068, -0.0702314946327621, -0.06661726986243274, -0.04695280697365982, -0.02444731927346908, -0.045520200506564516, -0.06725730168060466, -0.05711802579264069, -0.07749111738375636, -0.06342522113945252, -0.06381749377434998, -0.0852223187881335, -0.1019285585235617, -0.07419655817338945, -0.059790722805391786, -0.07622597632188735, -0.07582117469837432, 0.002060141087252651, 0.0007554934332799929, 0.016312791272023584, 0.03133968940278345, 0.03396516510943565, 0.05140389789265282, 0.06359152374189897, 0.05747422746198799, 0.04142502930944516, 0.026784367104395353, 0.04096306724003865, 0.01573289909590202, -0.020858428425014213, -0.02336170224634381, -0.04334203343802826, -0.02515308195129441, -0.03803312955342166, -0.06389538380872728, -0.04883433877008643, -0.05095898063311098, -0.0514823910866228, -0.0889455847570699, -0.11051631007761326, -0.14956389292632022, -0.1479457749554443, -0.17205790224422146, -0.16452450417441994, -0.16109978758139143, -0.13968371100960614, -0.14281649849547587, -0.15524531388217114, -0.1760662564904112, -0.20697112866390566, -0.22382970391755247, -0.2342185252280456, -0.23384015120754345, -0.21862851234709554, -0.19556632352303566, -0.2272899525464247, -0.22866355778175848, -0.23942299576978107, -0.21637924279239684, -0.21072886620844758, -0.2273548840743061, -0.21035898554159863, -0.20874942321944226, -0.18387793355407478, -0.19718695649907164, -0.20477365182208526, -0.17991051441698008, -0.20620027375225444, -0.21710325238401887, -0.16594420608314606, -0.16579053393341395, -0.15642471836493418, -0.10087864623609202, -0.13150538181904753, -0.16841018082947973, -0.1676630002500117, -0.1605483024551343, -0.20196658964907413, -0.2153023749009004, -0.236709615888233, -0.2225293585467257, -0.23118265600558327, -0.23810026098735967, -0.23074504130127527, -0.2559430337565881, -0.2649777366942896, -0.2885118897592853, -0.29316242260690123, -0.3424215131521286, -0.3609766032102003, -0.34563276785356695, -0.35839675046519126, -0.336595194787284, -0.3457754736269055, -0.3903866787234863, -0.4079195106849103, -0.4214408446703659, -0.42928364243482703, -0.43286313260366105, -0.440104725315769, -0.4627631231172255, -0.4717050150552048, -0.49446691464096426, -0.4951287268228393, -0.46616943259962257, -0.4815326487061719, -0.5312657496988656, -0.5187263352183831, -0.5001615099982284, -0.4740549304059221, -0.4750282587386654, -0.4786520718009627, -0.47925020830245885, -0.4975267743973792, -0.5305080062689513, -0.530397221781071, -0.49288466388273017, -0.4609520700473449, -0.4671476659585745, -0.4754649057977428, -0.4955760514549513, -0.49311254549444716, -0.5078596001474596, -0.5465047401419174, -0.5162936010387702, -0.5329169016614936, -0.5146848498949228, -0.5027190347684435, -0.5052544935087242, -0.5033660851256591, -0.5106184233777009, -0.471224585184943, -0.44318791924498535, -0.44973205093200924, -0.4754017525448335, -0.4784870026027792, -0.5019027084526346, -0.5028973945440122, -0.5157472758588069, -0.4983210295045238, -0.5039320219022846, -0.5312672603042901, -0.5257637877482267, -0.5188758882957532, -0.5301734498139341, -0.5093613765200484]",True,0.6000,0.4000,0.5000,0.1000,0.2000,0.0100,2.0000
8,go,Hit,1,0.8300,"[0.0, 0.008429099657760637, 0.03122770381504564, 0.04692216945238595, 0.060892901759824425, 0.061413034508520585, 0.06790307652425263, 0.0806468696181234, 0.0726319761938756, 0.07157429445491002, 0.06478669683298241, 0.10147223186233764, 0.1360238477951727, 0.12018498839053905, 0.11596822887796149, 0.1177467313813975, 0.13123711427549972, 0.13189887530968444, 0.13138788566849263, 0.1603993119718235, 0.12468475471347681, 0.13642786064627457, 0.132469699795002, 0.1354359635644851, 0.1369630868199486, 0.1495420206534677, 0.16028301635011336, 0.18421186839344275, 0.2008371671520684, 0.1784508426852019, 0.2180978411618317, 0.20867228726463505, 0.2143044144960708, 0.19018547977584044, 0.17145914416801322, 0.18186133654713452, 0.21072015677374734, 0.23454028670822802, 0.24911053850212314, 0.20528247190243912, 0.21062471048792236, 0.1865607614785893, 0.16129852691601004, 0.17011665400541848, 0.1871819296214433, 0.18783252680672524, 0.2082831016488287, 0.23607348365161113, 0.23373966111569128, 0.256521898841598, 0.2783539535801942, 0.30328570637346913, 0.33166874174091565, 0.3292183200675218, 0.3424477158177154, 0.3497538460148909, 0.3205158034130067, 0.3547245329847096, 0.3798915976796653, 0.38136020023149997, 0.37149143104983867, 0.3730922846533065, 0.39616073436804566, 0.4291506301288571, 0.42538954004093604, 0.4323846551601448, 0.4435474337960531, 0.45537280803933367, 0.4742099806524393, 0.445764613454117, 0.48660857389018464, 0.46421423866241285, 0.4877316637387918, 0.5115296766674123]",False,0.6000,0.4000,0.5000,0.1000,0.2000,0.0100,2.0000
9,go,Hit,1,0.6300,"[0.0, 0.013085831959731974, 0.03467700385935836, 0.02439286485558511, 0.047371766167224064, 0.05374711058589122, 0.07061107730950977, 0.07999154638731741, 0.09781732208649853, 0.12663787616095007, 0.15072197305351204, 0.13646866051349746, 0.1399608754177244, 0.12281732936557699, 0.12137966532319065, 0.12749876358647932, 0.12949112904105853, 0.13263311054532995, 0.1418667013079783, 0.16846684644611176, 0.19849151800442086, 0.20708821026763385, 0.21200190627946017, 0.24543411054286599, 0.269922669018639, 0.27027881843471074, 0.29959770160619215, 0.3250298550721188, 0.32254383813335963, 0.3464546740920834, 0.3410500454807469, 0.382026931414022, 0.3809938199181815, 0.3764108824639163, 0.3816330684746672, 0.3910921635233498, 0.39700289023888685, 0.3833963804044441, 0.3595414427182636, 0.3986280564507075, 0.3907909196970862, 0.38393708998189846, 0.34873034720102697, 0.3558142592861843, 0.3657155082182854, 0.3748315623808421, 0.37579802042986205, 0.37628238293096594, 0.3726108649560526, 0.39739925270644993, 0.3924153945403912, 0.4491135383233711, 0.4851492027780792, 0.5069952424869838]",False,0.6000,0.4000,0.5000,0.1000,0.2000,0.0100,2.0000
10,go,Hit,1,1.2600,"[0.0, -0.0285743803261791, -0.01536118440800046, -0.013195923270561478, -0.017699679313899035, -0.0307710126821251, -0.020132264965296864, -0.01452652274992086, 0.014570823475853556, 0.015124498098754345, 0.0064470249571193, 0.023478693032723614, 0.0038146935469989367, 0.03172433891269165, 0.021752109332615684, 0.03957584050597934, 0.026776272659156233, 0.042026695609601955, 0.05476788200766507, 0.07016022826475855, 0.06951879296707925, 0.10102998765290255, 0.05105221415114822, 0.039675063546665966, 0.054099025345236355, 0.06319920661973383, 0.075152965829315, 0.11213581354291621, 0.10043384242757974, 0.11441483987895792, 0.09760305075414412, 0.06627628684203254, 0.09636342993207452, 0.1200730407925488, 0.1072022237090139, 0.12027201487234106, 0.08852693707226432, 0.08383301634781538, 0.07842012597387163, 0.06745129193544608, 0.06689310032317107, 0.07363567132194644, 0.08855942804264781, 0.09020363124996446, 0.10192822392086942, 0.08052307286706042, 0.09714286043631666, 0.09673184399400415, 0.08878523757481137, 0.07034844472035234, 0.059629503920454414, 0.07685703976119516, 0.12372194990238417, 0.12313301428797316, 0.14675112586998745, 0.16263900123037972, 0.10477474034780845, 0.14017732235824368, 0.11986914642863597, 0.1329116517518144, 0.19404334165501005, 0.14666645089770763, 0.1645126947648141, 0.15198921857382594, 0.1536673915787988, 0.15934330211837325, 0.17221116574351267, 0.16386259887895566, 0.14906780601111275, 0.14834490695010177, 0.15616193459078961, 0.17270139255399436, 0.19534574137453636, 0.18882539857979536, 0.17748718453650203, 0.19314425210178518, 0.20952618493192518, 0.23061437082956215, 0.2605639414436677, 0.2764464104559077, 0.2800815809132935, 0.3069838394724842, 0.28123834805560805, 0.2995060580775605, 0.27141214831883953, 0.27078219937070597, 0.2714626512855223, 0.2661830072626319, 0.24529919196002375, 0.2568225641957864, 0.23421567633945828, 0.24793303586163598, 0.30882385212731495, 0.2985210355178414, 0.3151720216463959, 0.3104730462385066, 0.3270723794904275, 0.37116794883021575, 0.37324111558900036, 0.38297016070725687, 0.4101743499616216, 0.3969072029399585, 0.41424399600974016, 0.4358656753047819, 0.43008101772391544, 0.48416000303783613, 0.4730305093170782, 0.48265425380483346, 0.474296725305383, 0.4785529252906677, 0.46921026168760926, 0.4520867610625296, 0.4453343776009304, 0.4831502670829082, 0.49039059409431673, 0.49198959205001563, 0.510847076365285]",False,0.6000,0.4000,0.5000,0.1000,0.2000,0.0100,2.0000
11,go,Hit,1,0.6600,"[0.0, 0.019780636842344587, 0.03646844037066671, 0.024086812672060615, 0.014465297305349909, 0.04300088828799603, 0.06762872591604352, 0.07969618452758598, 0.06203214565927528, 0.050247366701812714, 0.05480647285726331, 0.013870838675022222, -0.011610073313124795, -0.021646353337876748, -0.0010198339160733504, 0.00739060711650545, 0.006708503132792941, 0.0052501401784252645, 0.003481646139826623, 0.003287400312357378, 0.017330703487353747, 0.02227044298970958, 0.020645131818902127, 0.010697366251186639, 0.019438255253506717, 0.01327617177721962, 0.041832992685376665, 0.07578762331157682, 0.12181913091558956, 0.13831026761466564, 0.1860934345576545, 0.20957745258766988, 0.2240262708550162, 0.23627845572792325, 0.24748015256823036, 0.27771419643453926, 0.322964109242022, 0.30713251175139694, 0.32987269419522064, 0.33873703184914994, 0.36652918687352326, 0.3653487865262321, 0.3637048189944977, 0.3402330192893961, 0.3592101609275797, 0.3640238432971617, 0.35165684837979355, 0.3611535907166287, 0.3948753001742174, 0.43012206073545806, 0.42633391784122115, 0.44192561135039266, 0.4801603088284337, 0.47093266944616824, 0.4845594338434706, 0.4651486665624141, 0.5069406309051192]",False,0.6000,0.4000,0.5000,0.1000,0.2000,0.0100,2.0000
12,go,Hit,1,1.2100,"[0.0, -0.03991905956326661, -0.05300943441136107, -0.0538988987124911, -0.04135750246088237, -0.02419838626307009, -0.024834260643477234, -0.03281376559090102, -0.03029631482861208, -0.04693348743996248, -0.00774002231390393, -0.004404104823798636, 0.010902706376418735, 0.04566936395639393, 0.042239558959882975, 0.06019070295452088, 0.0644156527384424, 0.07596088368482319, 0.06384320838202039, 0.09893761784742441, 0.12505446415687052, 0.08906174348818521, 0.08965463388511821, 0.08660691382952897, 0.06285810893004043, 0.07148857340152445, 0.04558526386680021, 0.10290551812551232, 0.11999577852316574, 0.11625957352899949, 0.13278831224849197, 0.13352112577634584, 0.153157468469352, 0.16087803135968506, 0.15593209925933432, 0.14578417754479717, 0.15924444741988314, 0.1908411388577877, 0.20662000810793588, 0.24143845266218505, 0.2248975541814315, 0.21845292323605772, 0.2198835580897667, 0.17963824558567498, 0.18761533450142517, 0.18150722799797842, 0.20123813546665117, 0.22586003680387207, 0.1984832367110923, 0.18093759173780163, 0.1989260521498459, 0.21662529567570876, 0.20236610291752022, 0.23112663614796386, 0.22770017427980535, 0.25267255120371895, 0.23175095241150842, 0.19364189065623355, 0.21733174143779943, 0.24212618546134462, 0.23107755128429855, 0.23849062126702922, 0.18607043739378623, 0.16830847040495808, 0.19383710304342333, 0.18909067722586648, 0.18214409032362003, 0.19335948047104273, 0.21808718071140337, 0.23801723941151792, 0.25708925215645, 0.24876623582828974, 0.2672478687909026, 0.2803908654137401, 0.3049501120527006, 0.3230799997357296, 0.32676527274307676, 0.3043615049717741, 0.30215388666271115, 0.27762497940783193, 0.2593186449108865, 0.23103315789139822, 0.2256188914331078, 0.2437230891993477, 0.2715190837029817, 0.30122851148419805, 0.2915330849059208, 0.2847436291533196, 0.2981321289144421, 0.31248456929642066, 0.29934051978835413, 0.35851188843742043, 0.3587815730341228, 0.3748685087296975, 0.3923734672000402, 0.4009923439411948, 0.38679529803275053, 0.3844131329157166, 0.4133266609065147, 0.4175625350233025, 0.37899302875582713, 0.40384810464181836, 0.41501743115005457, 0.42898572467705054, 0.4340365778311062, 0.44468904572993495, 0.45205095448012494, 0.4704133515678192, 0.46179963579228334, 0.4610094957422899, 0.49454569058729203, 0.5215473605135267]",False,0.6000,0.4000,0.5000,0.1000,0.2000,0.0100,2.0000
13,go,Hit,1,1.1100,"[0.0, 0.040696689320988196, 0.04767414131446703, 0.049287439100068234, 0.06845036018620193, 0.11144228617217088, 0.09743580446621448, 0.10020802044686582, 0.09100475991187995, 0.12637556657760818, 0.09388694066964881, 0.06225294412531633, 0.05362241550962757, 0.05706877085059339, 0.05508932243794715, 0.09239062457940786, 0.09056323647920356, 0.09243572529079938, 0.09271144783745017, 0.07201766679074911, 0.08839804742789686, 0.12103455987785453, 0.12581673923149017, 0.13636475321638108, 0.11867911257915088, 0.09373089736882866, 0.10186441738023042, 0.09038051503588988, 0.10261170942476028, 0.12153876120410184, 0.12760717033571367, 0.12004393423363105, 0.13607118841192203, 0.09772834890599506, 0.11205264390391555, 0.12078912610217575, 0.09889501394876526, 0.1279936736021618, 0.11146684650011957, 0.09187958339312421, 0.08471389073612903, 0.08549074559464709, 0.10505452848718175, 0.13009068720848244, 0.1593298423313732, 0.18207386721182173, 0.14774476674504597, 0.15722259927397056, 0.14146006828817678, 0.15150725696338946, 0.18802564942754826, 0.21235101533499343, 0.268851193902977, 0.2550636113935364, 0.25492075246409307, 0.25092507775770373, 0.25880289495916997, 0.2390908781011374, 0.22663755502499866, 0.22289326829408784, 0.21789036186355337, 0.2048509555835812, 0.19616927004453252, 0.21301236933562184, 0.2351767546196491, 0.27127710746219125, 0.3203138832867733, 0.30478955187829715, 0.3203285570676118, 0.32413226583955723, 0.33808662717562565, 0.3614515057510305, 0.3566574198918817, 0.35251711250552065, 0.35959656091990644, 0.36905235896272165, 0.38909677398839976, 0.41771698234115573, 0.3879689195434256, 0.3668728648685462, 0.38661426757041956, 0.3615282944618399, 0.37926486747640625, 0.3899899230858643, 0.3753010374901794, 0.3645287019037498, 0.4170885544192591, 0.47629524742161716, 0.48367250755854047, 0.45978388732709063, 0.4357170349623365, 0.43832115346306544, 0.43910457660426655, 0.4503693038622075, 0.4498514751407557, 0.4731592422941657, 0.4804028700207518, 0.4658083734661935, 0.44978295638379956, 0.45916026383955605, 0.4778086397522159, 0.5051026755111655]",False,0.6000,0.4000,0.5000,0.1000,0.2000,0.0100,2.0000
14,go,Hit,1,1.0000,"[0.0, 0.005455771268205485, 0.008295246742838384, -0.01380465686689947, 0.0032318310406175763, 0.048381987923981164, 0.04432559731716383, 0.04681507029119912, 0.03732557200229542, 0.03337887796594505, 0.002775387501392966, 0.0023123547980443103, 0.030993347829386616, 0.017066344228424964, 0.00863649537229067, 0.0052138769791938155, 0.001567939488608703, -0.003399046851500446, 0.02010402457393805, 0.03886140117558848, 0.046755636539295424, 0.020740521956855773, 0.03258094537798319, 0.022061335212570157, 0.06150922579773564, 0.04812006847873619, 0.03019216257062913, 0.054725222476562974, 0.05295920242585232, 0.06216306988870196, 0.08403396955935483, 0.08105972611856987, 0.07578063051861082, 0.09649458042242945, 0.11321507757551945, 0.1080198329737786, 0.08179863917678298, 0.08605242762169654, 0.027931309001221198, 0.05349753913303688, 0.07539748861836906, 0.05930196551922577, 0.049340502144140916, 0.06902849261480802, 0.11049054260598917, 0.16121840639676488, 0.19128664492179603, 0.18240067813667576, 0.22136974094090675, 0.21204301589836314, 0.19969722113060762, 0.23409217844208552, 0.2415329900158586, 0.24332879494810072, 0.22227108644146304, 0.22919847466425458, 0.2543288555260228, 0.24328050205488877, 0.22885537414102777, 0.20603729931585435, 0.21484203255607667, 0.21979941169950257, 0.23524541040934613, 0.22504641303895465, 0.25505860272993286, 0.26214905891185786, 0.3163244808585835, 0.3216459058994297, 0.3156287877387687, 0.32313891700628095, 0.3404484122759431, 0.3598750882879267, 0.34684451121637633, 0.3429024866750531, 0.30843778941151684, 0.2946770776881386, 0.31915800250193616, 0.3340339771207748, 0.35995642707305897, 0.32980809105525616, 0.34487041520440853, 0.3685897654290426, 0.39197028776828774, 0.3935805139034934, 0.3951647400081543, 0.41351152008343023, 0.3936081206175459, 0.42114112825879707, 0.4409488878434405, 0.48702539342020046, 0.5153977896078838]",False,0.6000,0.4000,0.5000,0.1000,0.2000,0.0100,2.0000
15,go,Hit,1,0.7900,"[0.0, 0.018772890020146024, -0.009121638968625105, -0.004815903538628874, -0.014986499531957574, -0.00797141545672228, 0.01774657611785646, 0.005029526266224925, 0.020200856705739824, 0.040321963910786754, 0.04030054736159966, 0.07561280147023172, 0.11026075545520136, 0.09730453186466836, 0.10393000029440035, 0.10914201938999694, 0.11379421904164695, 0.12209503606646548, 0.11333034558103323, 0.1413223481820307, 0.14044449240463147, 0.1267366255595775, 0.14469798128717906, 0.17282144642042788, 0.16487558180329825, 0.16303862186751175, 0.17518124534645682, 0.16148201927529682, 0.18767055234859334, 0.18608004124724767, 0.19618298309080623, 0.19378982624671684, 0.22138282164676434, 0.2296253512338438, 0.2243533096026736, 0.26549060497075794, 0.25783836618103384, 0.2756332661018811, 0.25190419935713615, 0.2738187912414751, 0.2687924782076612, 0.2683018585488835, 0.2310159935908653, 0.24417746743594865, 0.2680493195062241, 0.2664676619502407, 0.2542643177881308, 0.24001666345270772, 0.23326695649122242, 0.2743144415245725, 0.29571367459335557, 0.2684432590773242, 0.27721996667424526, 0.2747182961760548, 0.2533637564297188, 0.2632441196274383, 0.30289899842269125, 0.33907209634020585, 0.3415390812157418, 0.36455218758636326, 0.4008242910542394, 0.40735764947913355, 0.42144871174746906, 0.4487075845301508, 0.44476415444825096, 0.456285641993895, 0.4525298947901682, 0.47353998905777434, 0.4921093266488466, 0.5007495618654214]",False,0.6000,0.4000,0.5000,0.1000,0.2000,0.0100,2.0000
16,go,Hit,1,0.8800,"[0.0, 0.02822946592231558, 0.014226686858880037, 0.029474789602647017, 0.028931182302689738, 0.022276289469618606, 0.07748678916652924, 0.07626358662717697, 0.10610606664861758, 0.1223996056775409, 0.10432291508851366, 0.12023487722477413, 0.12794473728299047, 0.15110807301601445, 0.18081518203471264, 0.19568276526288697, 0.1990074561228004, 0.17249397830403523, 0.19325584463258452, 0.17427979156580484, 0.18927315145576054, 0.18045804623175576, 0.15379481563777458, 0.13807129323934592, 0.10298088808039142, 0.10629885608660711, 0.05979429198875629, 0.03355879542078926, 0.052500559266054896, 0.06390968144701392, 0.06633485999027329, 0.03696396223483792, 0.037171169005387514, 0.01659427334785659, 0.020288308254205637, 0.05810189753936214, 0.074104229555672, 0.06476170141388225, 0.06679755092468372, 0.07908222664633222, 0.06794427284438954, 0.08096094043360368, 0.10466111001140219, 0.09596036596721537, 0.11145946968362744, 0.14304201043383635, 0.1428775909395989, 0.1724616943827228, 0.19353871273258202, 0.21881992039258505, 0.22708298573183805, 0.25516064473525696, 0.27668132487374597, 0.25778385956117517, 0.25326812729599596, 0.26227078687841615, 0.2928265422082152, 0.3329489043773403, 0.3319008195708817, 0.30093538158861477, 0.3107413420257906, 0.3022860810156843, 0.3078580997738184, 0.32084044795266786, 0.3297120760089769, 0.37983891178544826, 0.3976661182300307, 0.39943136932916734, 0.40042393867695547, 0.38894861731564345, 0.41949707558231597, 0.4034397082850184, 0.4010612225087341, 0.44029600203046637, 0.4490577629003999, 0.46996398764168246, 0.48368463685704216, 0.493972711744161, 0.5202491802105127]",False,0.6000,0.4000,0.5000,0.1000,0.2000,0.0100,2.0000
17,go,Hit,1,0.7500,"[0.0, -0.010615132215677786, -0.007358823387309274, -0.021772141667515763, 0.02160219363047827, 0.016589502933949687, 0.011444993043666665, 0.023164803845762423, 0.0727947395834147, 0.06583470293413043, 0.07892784086626005, 0.10966104793749969, 0.12961442148227081, 0.12843761837237078, 0.1780444955973912, 0.16428331431823068, 0.1480371453698304, 0.1704777607770298, 0.18693290286867692, 0.1955318219335834, 0.19398910416292983, 0.22690239650586355, 0.24173958991810682, 0.21540607638781212, 0.2524576661756127, 0.25801760660876294, 0.25893822859875826, 0.2393634961312097, 0.20931802849935344, 0.21631192813867917, 0.2342490210485752, 0.2440017046950389, 0.2325593298943122, 0.2706042996817738, 0.2785321604840071, 0.2838780955344894, 0.2704166306202926, 0.27175100044977357, 0.2615703201552965, 0.28597850959986587, 0.315816452141752, 0.30599481106470916, 0.32843188057096906, 0.30944477934912934, 0.30922601666025173, 0.2836842427243223, 0.2897298867821579, 0.30085924240767364, 0.318565350767906, 0.37033783279982013, 0.38629058343760403, 0.39657014845236016, 0.38905773785123243, 0.38650084690677367, 0.35993594597443956, 0.4032611137791617, 0.4636827986729317, 0.4633769911934649, 0.4638763581912783, 0.47974748982712445, 0.4758758542783826, 0.48687688793924755, 0.4860563841993371, 0.48401887643566804, 0.4906369949762155, 0.5002443361083038]",False,0.6000,0.4000,0.5000,0.1000,0.2000,0.0100,2.0000
18,nogo,Correct Rejection,0,2.0000,"[0.0, -0.034230527989724896, -0.046981867868289014, 0.00596571196603448, 0.025663083618864536, 0.015850293879318415, 0.046829776736966366, 0.06587496433083015, 0.05769009813931701, 0.06273750853032599, 0.06776294234352298, 0.0779980942214148, 0.08958137625766621, 0.12202094529068677, 0.12894703498039864, 0.0993502689191593, 0.1208503742068145, 0.12780765133242533, 0.1356943562238232, 0.10278476824152658, 0.08536881520565366, 0.09070176248395984, 0.08802107318676276, 0.10997325914393344, 0.09554397067740618, 0.12122085575192233, 0.117029213876602, 0.0865719795543424, 0.05241371383084492, 0.0712658573169201, 0.08742794249361542, 0.10693450086778679, 0.14236338578399982, 0.11667850360572636, 0.11078113455992242, 0.11512662067687379, 0.1129701281381024, 0.10787339291939992, 0.1059521068540626, 0.12807208537771764, 0.13863820790040918, 0.18845614885644213, 0.16883946497411953, 0.1696900223102747, 0.1658754340963575, 0.1720818709483318, 0.1607895364674789, 0.15882588589431665, 0.14685227894984318, 0.14631181985198785, 0.14917326298556177, 0.13246467064433426, 0.11696406997047429, 0.10222123011529922, 0.1255231852824375, 0.11798092435202713, 0.13618749444168987, 0.14973441931050624, 0.08677677989173876, 0.1075086869669604, 0.0695332112884438, 0.05946204466462698, 0.0407361927912874, 0.016539100239372564, 0.01580195611650217, 0.026599701276512677, 0.01325304382211048, 0.015610937794764607, 7.682824497509504e-05, -0.02700223512661621, -0.055780646817786717, -0.03628974553350517, -0.02827540209920449, -0.023105400526285555, -0.035783975275656986, -0.022345717857293706, -0.01306401237297617, 0.01623160588830703, 0.03640292735762991, 0.03734168899464716, 0.007717011608118121, 0.014404117601126917, 0.00694494671270316, 0.0240331230964584, 0.01933178106959723, 0.004054389701072468, -0.004022244956698904, -0.02027744920761574, -0.049398328603454465, -0.06706007175428672, -0.05282445779926338, -0.050737377536173106, -0.051142700777926216, -0.09231664364654268, -0.07717010458677605, -0.10744303887598913, -0.11919201340662558, -0.11347945321514888, -0.11475759811392643, -0.14429069554933688, -0.15261645873788376, -0.15810448390992288, -0.16611988714383483, -0.192173147306676, -0.1990806908674096, -0.2127061755866668, -0.22028247272780785, -0.2667422895254261, -0.2841344457082772, -0.3069557269308518, -0.3213903859732933, -0.3380501125037113, -0.36428365899155357, -0.35861080464194744, -0.358712603294398, -0.36329927614218255, -0.3755357510165817, -0.35137785469992017, -0.3562648522559769, -0.32259388525919347, -0.3041115766551847, -0.33657369854142066, -0.3074693520509688, -0.309713207666391, -0.3279079840373699, -0.34038766560011524, -0.3527761369129016, -0.37391184254007387, -0.4184637049284111, -0.4420133745295478, -0.45610801374170995, -0.4561391536993993, -0.4272786597842196, -0.437776571438287, -0.45535153394556044, -0.45299863049951977, -0.45248312486684444, -0.48564060939572445, -0.481518718965758, -0.46018303558946144, -0.446304052500758, -0.4370034192689022, -0.44609348338314, -0.4878768729915316, -0.48848520158083364, -0.49391455109185933, -0.504722618780212, -0.4930806344829102, -0.5129250634800849, -0.516507482582483, -0.4976080532841999, -0.5034817143666329, -0.5168608020501773, -0.5246066213283925, -0.5304714516674577, -0.5286103680608303, -0.5481681362843328, -0.5252521280583968, -0.5335369688238347, -0.5294735556283625, -0.5006416124115508, -0.4933471869547623, -0.521677504452873, -0.5145818122925216, -0.5131874526565474, -0.5388302900792017, -0.5829736666878159, -0.5816809725992734, -0.5857069489506801, -0.5820437654211714, -0.5582548537433151, -0.541912848068244, -0.5420559910955718, -0.5449332164030128, -0.5718732535396326, -0.5653343847730776, -0.5699801044425312, -0.5802549508718859, -0.5761915771160415, -0.5462721031953075, -0.5406633237087417, -0.5666914404775933, -0.5888970754235016, -0.6131278766269581, -0.6170774191384556, -0.6380537750402561, -0.6407989440938395, -0.6252191511631772, -0.6320871964245403, -0.6519394393295281, -0.662303629091634]",True,0.6000,0.4000,0.5000,0.1000,0.2000,0.0100,2.0000
19,go,Hit,1,0.8100,"[0.0, 0.0020800031039040576, 0.005102167847840611, 0.005123994705582827, 0.028282990199720526, 0.03756922471678198, 0.03024170420634749, 0.01767353892317279, 0.00918689913791645, 0.0024507538122510407, 0.01783240335004741, 0.05696764353129879, 0.08158505257403803, 0.07642609029400008, 0.09047693967664872, 0.10276903368714271, 0.11144857800559504, 0.13119568637867074, 0.14612140885960517, 0.1524722537391922, 0.1601972808859894, 0.18240158083903887, 0.20680902516342964, 0.2041861751298126, 0.23562970678106632, 0.24592198684719171, 0.29599614070506697, 0.28695481024824004, 0.26478745321801916, 0.24263963308779452, 0.24093302748769355, 0.23604617225424399, 0.2528609366158999, 0.22403899950603942, 0.23404824294962875, 0.25527714006305247, 0.25446658110760867, 0.2558068502614525, 0.2846754780775855, 0.27377073091175325, 0.28931690921686104, 0.280986980865798, 0.2901961830155022, 0.2986466622579845, 0.32767618814577926, 0.36446067225502904, 0.388075752935191, 0.3877029188449217, 0.37540456286843465, 0.377302908575664, 0.3952286449735669, 0.3895742387929038, 0.37285212261510126, 0.36906223840828556, 0.35894623805063774, 0.3997386062533743, 0.40011199062145186, 0.41015229397587766, 0.38746070993544357, 0.398625240545901, 0.4147778110184108, 0.42562072511008064, 0.41157372158926464, 0.43047228321948566, 0.4280422366456782, 0.43408895482756243, 0.45595612283878073, 0.44405809431442683, 0.4349175315979617, 0.45770586906383853, 0.4656224052711465, 0.5027383997357222]",False,0.6000,0.4000,0.5000,0.1000,0.2000,0.0100,2.0000
20,go,Hit,1,0.7600,"[0.0, 0.020361114857859228, 0.023592893028101653, 0.03407940918666097, 0.045265949362334544, 0.04090082327228083, 0.05759089416221328, 0.06038904562382957, 0.044185646950061934, 0.04940155856628756, 0.05630636113974692, 0.07460402529877412, 0.10145358803290333, 0.09491462113159424, 0.10457905535790477, 0.11486107546702588, 0.14414126840543742, 0.15066753563363272, 0.20557872186275716, 0.2288460275459114, 0.22542472639061487, 0.2335114017955832, 0.2345144924101168, 0.24975493986152825, 0.2250375762610478, 0.22980624763766286, 0.21636784867662145, 0.20457704745961044, 0.17086554709229865, 0.2198865971020234, 0.19640985809444894, 0.22811290792062372, 0.21057271494288887, 0.19160168644532655, 0.21815441873653554, 0.2247628831655341, 0.23287763203440193, 0.2319506550869139, 0.2261119265574864, 0.23313544378801188, 0.24791032929511972, 0.24662064704634631, 0.275110651530777, 0.2797167490909607, 0.26884448656152715, 0.30170987553869216, 0.3143049838519958, 0.3587133181939216, 0.37004964476470537, 0.3727039563310017, 0.371812369571981, 0.3874334609235124, 0.3868504171919141, 0.3746678591037503, 0.4227165639725729, 0.4250633179087576, 0.4156912529524714, 0.41435456499188006, 0.4186668399256784, 0.4282478076257259, 0.4529129636814753, 0.4717460343472982, 0.47513934140024666, 0.4966604395115027, 0.48887500814460855, 0.48476846842195165, 0.5235010270035172]",False,0.6000,0.4000,0.5000,0.1000,0.2000,0.0100,2.0000
21,nogo,Correct Rejection,0,2.0000,"[0.0, -0.0424082031041595, -0.04319267447852193, -0.0503834269374732, -0.05496371127890601, -0.06655143540728453, -0.05275411216968741, -0.04587159273125736, -0.08666269192177727, -0.043495726527658346, -0.04305148773453043, -0.04775919483539243, -0.04265567129429376, -0.02120638675458138, -0.02998819966546168, -0.036241670824365906, -0.048337846017660474, -0.049698724515341505, -0.04517153394065859, -0.08363034070609021, -0.1023128468109628, -0.09837654780030736, -0.1272832291479853, -0.1499314651264401, -0.17565689877334634, -0.18176914487815513, -0.17874345024936947, -0.19608801914916293, -0.21736690731948752, -0.2307982982658697, -0.22337312464748396, -0.2007897675350943, -0.2411660509259519, -0.22422874369858284, -0.20495366638099888, -0.197062957904221, -0.21027229833918046, -0.24616991740906824, -0.22217643594167835, -0.2275693283782146, -0.20216095464459777, -0.2122182006008084, -0.2109742101268506, -0.20401666345970618, -0.19955156177009156, -0.20768631427735335, -0.2137595471061096, -0.23502553454667874, -0.26616949383878424, -0.31255404116636304, -0.3349555078109517, -0.33460135048070666, -0.35198955223329514, -0.3643372667958111, -0.35151308970478823, -0.35916782521615587, -0.35975352833327096, -0.345292536223075, -0.3339620721438363, -0.3518092937685163, -0.36051045143048577, -0.3904460752722637, -0.42327525046350767, -0.4218299034441239, -0.45725250032265546, -0.45540592993756157, -0.44275547085483913, -0.4322489726586406, -0.43683803044383435, -0.43253149381324835, -0.3933941585544088, -0.4315027637205477, -0.4566243395469108, -0.47105289439947273, -0.5007505535523932, -0.4878418167940448, -0.46538900156299023, -0.4776683718625653, -0.47742692667906383, -0.4529277188052624, -0.4835855717290224, -0.5063229961542669, -0.5198427721901013, -0.4852167108047283, -0.4754151356212036, -0.48434164054162204, -0.46243700708079494, -0.48121203227893644, -0.49132916920223124, -0.47274934005254443, -0.4705704756293628, -0.4594073894735888, -0.46339251252671754, -0.49391921936091054, -0.5050997768554776, -0.5184725054187801, -0.49763825890262686, -0.49259706133286557, -0.4906974688813363, -0.46693163772389285, -0.428430362148413, -0.4285961303451785, -0.41831357324096896, -0.4052254652698497, -0.43102897886798, -0.4379141445058478, -0.4680487769172048, -0.4433203561539353, -0.4188267870060939, -0.4303595396341307, -0.424196065757171, -0.4166287652816337, -0.3933886346628103, -0.38578180024751246, -0.4157861502802806, -0.3761302434109668, -0.3761460269671163, -0.36536944004292315, -0.3666100551358176, -0.3392391435420781, -0.36680276420295804, -0.3628748085487993, -0.35474467999161147, -0.37463995081927126, -0.3461569840337343, -0.3467706301510443, -0.35048980707123595, -0.37674375248267356, -0.391066900508519, -0.4000008443230699, -0.40580953007553017, -0.4134056064094555, -0.4124491351476973, -0.41941854696661574, -0.44413369450988244, -0.4223879875894115, -0.39503246012328735, -0.4124069070469605, -0.4456824150345144, -0.4844034472013597, -0.48958440491665633, -0.48438020717110025, -0.5045188085774792, -0.4796301416518185, -0.5122756251191294, -0.5210879324208164, -0.5205922964909706, -0.5068443924229958, -0.5168130466463928, -0.5432883798192262, -0.5307601310867116, -0.5526823136960739, -0.5282118618486429, -0.5353100818937674, -0.5484727306042247, -0.5835462313630997, -0.6258544954594562, -0.6595095401353047, -0.6468650319261146, -0.7028094461867676, -0.6887778864216647, -0.6785695266417329, -0.6548297830665768, -0.6684143977503956, -0.6944790557603873, -0.6776653740311345, -0.6861886093370312, -0.6623689535711949, -0.6869036378209398, -0.6596729412711977, -0.6358799151750806, -0.6557882410510163, -0.6523544098791068, -0.6360880486732751, -0.616802246312705, -0.6114182622622762, -0.6120579389465547, -0.6394539821005547, -0.6767340483728439, -0.6798669115309287, -0.7119396432230634, -0.7320675257151479, -0.7658313666697812, -0.7555518683794987, -0.7747621474914913, -0.7507439502130095, -0.7796919794145214, -0.8069317975417564, -0.8565868800911997, -0.8806671915251907, -0.872560034517332]",True,0.6000,0.4000,0.5000,0.1000,0.2000,0.0100,2.0000
22,go,Hit,1,0.9000,"[0.0, 0.014802091240741336, 0.020837152978593333, 0.018794127031851047, 0.03987871675379458, 0.043537028572454506, 0.04667127551738626, 0.03933791776492053, 0.03651599191873843, 0.06108522961019854, 0.050243217926175164, 0.053413743437373824, 0.025350130871817922, 0.004085195244340013, 0.02459215708871971, 0.021291471735392614, 0.01920423228696476, 0.01475986383174268, 0.013053282820404681, 0.01388713103603478, -0.03163939893079029, -0.0032709644609344862, -0.008489921195047186, -0.023217567943193324, -0.02499153569173801, -0.009346448509227341, -0.006248856320895022, -0.0033153616621748806, 0.014321812667614769, 0.029797032427994922, 0.05034458281800313, 0.03334227142545031, 0.05100708127642126, 0.06408764118673009, 0.03997456486983272, 0.051045100661102724, 0.061801682587121015, 0.05686930283630011, 0.0705870209687076, 0.07750168800507057, 0.08347046343702491, 0.11364377462898918, 0.10760306510686031, 0.11482839059853667, 0.12303292615688341, 0.1558507218636859, 0.16170029203302247, 0.1853572693501341, 0.22457242734210064, 0.2251469831734854, 0.23871686792928157, 0.2563278765082655, 0.21838455160392056, 0.22115205094402085, 0.2319467119998389, 0.2783042419001402, 0.29636645650079496, 0.29383734371156606, 0.34109212115490756, 0.34192240989062467, 0.38379606231258717, 0.3666714580512883, 0.39765894364038384, 0.4209706046173848, 0.4276939281083055, 0.41350273696088297, 0.4200464101706378, 0.39772395713397923, 0.41606999435419395, 0.4008528853764031, 0.4156134419861618, 0.41441940222193807, 0.39690613199306196, 0.4005657301313865, 0.4007133975433363, 0.4267640235482031, 0.4242480113343133, 0.4330606233476121, 0.45229539018312265, 0.4806850280775098, 0.5124547306178742]",False,0.6000,0.4000,0.5000,0.1000,0.2000,0.0100,2.0000
23,go,Hit,1,0.7900,"[0.0, 0.0318673702860719, 0.028496079200372275, -0.005386655944814425, -0.0015731952398865675, -0.017307710877028377, 0.008526133642513693, 0.007906726129433085, 0.04062968702234107, 0.039488260804180546, 0.07269563302433849, 0.1055121595386049, 0.13182592253084804, 0.13212440211601048, 0.12988283556239116, 0.13927834966388103, 0.13463218212756423, 0.1477722358104819, 0.17193957411761818, 0.18913327380693237, 0.18699101835879867, 0.19468153957198175, 0.17611109219906168, 0.13886588035585948, 0.16868013883071384, 0.17557936271717453, 0.17947142716938977, 0.17603225821192853, 0.17018342209674397, 0.18548621648356137, 0.19009226910765517, 0.15829402838007567, 0.20173921752712962, 0.22532398635356762, 0.19126525715509168, 0.18636449646446357, 0.22129011833456785, 0.2544435154136749, 0.2406966029289163, 0.24584523593481233, 0.25668343877405164, 0.29668983620601946, 0.2927321079282442, 0.2632911310071509, 0.3131790580862926, 0.35646311981471424, 0.3737002546425975, 0.4021651769134604, 0.3866760360744291, 0.38910414542491534, 0.3856232994629433, 0.3620755813086409, 0.37224233063287, 0.3422129137696499, 0.35185914067679674, 0.38045649300854595, 0.3840345297437097, 0.3852705159788399, 0.4232291216306758, 0.44140077477678896, 0.4291933911306901, 0.45719618863850686, 0.44050466019026946, 0.44461358126330214, 0.47748957146950305, 0.46712643975060836, 0.4527102317923366, 0.4884309990584287, 0.47594211962141425, 0.5096522438588943]",False,0.6000,0.4000,0.5000,0.1000,0.2000,0.0100,2.0000
24,go,Hit,1,1.3100,"[0.0, 0.011350948417781285, -0.0047076617394538715, 0.02133135761377145, 0.029772262701294745, 0.05957325106005409, 0.036692293584381426, 0.046937948434733014, 0.035881907262014436, 0.0487779331079511, 0.003733297614604933, 0.03480278043545763, 0.04957168542978329, 0.06872397140147676, 0.09530813310177574, 0.11837152879023402, 0.1405197095589492, 0.11737481548165093, 0.12643119041666964, 0.1080797171883978, 0.09585303127438946, 0.1133251714769102, 0.08833399690034775, 0.09456134994770028, 0.1210393900997002, 0.13624429093100737, 0.16888194667097697, 0.17520689501473338, 0.11510625146557771, 0.10140429832710837, 0.12058198343512068, 0.11356133662967001, 0.09791649947280831, 0.10439686071223922, 0.10138300430290562, 0.1127431077107917, 0.09598691166539425, 0.10401445271306653, 0.10607759171373368, 0.08368405256588539, 0.08460973385718369, 0.08374974836548157, 0.05472367829159231, 0.04688761976574868, 0.07878592813315113, 0.11129769827117203, 0.13288126144964107, 0.13027201432981028, 0.10481123028529596, 0.09721095763949894, 0.10826364507686213, 0.0720117715779954, 0.06675545418447118, 0.03424760981569367, 0.07588206687357288, 0.0664565735252806, 0.06983285161773116, 0.0702456456801523, 0.1046321779657683, 0.11089400836204064, 0.08549003234779937, 0.11755796735309926, 0.1470014756045877, 0.1902044868157241, 0.20519289670724353, 0.2000453708616193, 0.17958605660425883, 0.17001785218739743, 0.1893408345179049, 0.22257269043988892, 0.23399981031190048, 0.23676066408926816, 0.22248450340095138, 0.2207497392130829, 0.19063500016591037, 0.19487432846456829, 0.2062087436437728, 0.2129573759277112, 0.24022244896156753, 0.26319769601068976, 0.2474359429727677, 0.22306175554281665, 0.21574775997966894, 0.1981496172875492, 0.2435987077630512, 0.24303267338816287, 0.21389395450836693, 0.233500057918185, 0.2521478294762662, 0.2728209960209254, 0.23871739204384917, 0.24723761086950288, 0.25166594783656276, 0.28445639627604186, 0.30376979633803974, 0.2864949827595377, 0.26835124010461847, 0.2978060269091366, 0.2702875046908215, 0.2787974110632671, 0.277235283046208, 0.2913003591159586, 0.2984643568968221, 0.2980568475761221, 0.32462568906998485, 0.3266299768668748, 0.35660621908930723, 0.3797354893029251, 0.38623364156703527, 0.4026147810349624, 0.3917884514225907, 0.38849882133806124, 0.37788178038144177, 0.39675103707485726, 0.42158564267800674, 0.4196526295570786, 0.43247488532316564, 0.4401251292613517, 0.4548478835952796, 0.4511773781993402, 0.4764611983204239, 0.513975499813041]",False,0.6000,0.4000,0.5000,0.1000,0.2000,0.0100,2.0000
25,nogo,Correct Rejection,0,2.0000,"[0.0, 0.00521453514221281, 0.04085040426089002, 0.020092603240657134, 0.0004486495472300796, -0.0168601130610681, -0.02367257190263901, -0.003056895239027666, -0.041307866089665884, -0.050720031992274206, -0.04167019170808227, -0.04227437831751658, -0.08320792952617581, -0.0985548128968067, -0.1150230524888103, -0.13079304225587948, -0.16067395565023568, -0.16369990000292908, -0.18855076229921897, -0.18103732289579133, -0.18153254975391644, -0.18188038078532798, -0.1855048055436976, -0.17523779342516527, -0.19386096666353916, -0.18763080103195282, -0.19127916376090598, -0.19717723972705234, -0.22861749235253256, -0.22376981006703034, -0.20713975367612958, -0.19301655258773417, -0.16682415944965573, -0.19618207801931153, -0.2090002932848927, -0.23615260039411512, -0.24234640806109053, -0.27558318749265526, -0.2963250809048066, -0.32894871473227644, -0.3409457556672013, -0.3361382046921467, -0.37070288809906926, -0.37314476821533493, -0.36296435320923426, -0.378912246861567, -0.38618917872591235, -0.3749153181028929, -0.39039084940712937, -0.35804216088153845, -0.3610361828623451, -0.3803166447129107, -0.3641896918601327, -0.3545582149313315, -0.34823238256203737, -0.3539665330203392, -0.355724357458224, -0.3667442269331721, -0.4052734138713957, -0.41528483076523054, -0.41861984472652025, -0.4480703838158645, -0.4757365454480937, -0.48134783899903993, -0.4529783238170175, -0.4577010822700174, -0.4614028678330491, -0.4787346257162693, -0.4923006419492739, -0.4885969117411777, -0.4810709496691668, -0.5168954813118208, -0.5300369901482372, -0.5253679559833564, -0.5363492169922132, -0.537165976536341, -0.5183895205423755, -0.508990196253477, -0.5314248040911398, -0.529443824826221, -0.5371495965440698, -0.5653534998822987, -0.5649086729405579, -0.5594437603213025, -0.5936196089138347, -0.5852321094551491, -0.6082331510132358, -0.5907877336826239, -0.5794899221560944, -0.575491900138725, -0.5743898856785801, -0.5722306693720602, -0.5633490870086263, -0.5643697268913449, -0.557329142746378, -0.5624394927859315, -0.5752663232396195, -0.5723281958314612, -0.5991985723558465, -0.6000158690672077, -0.6000229694097086, -0.5858723651874663, -0.5904999726717541, -0.5654262690633347, -0.5649471770672218, -0.5748196525513666, -0.5792226680938036, -0.567064445401356, -0.5231945737203144, -0.4838354658194091, -0.5178909814541998, -0.5367208100637613, -0.5763298780173044, -0.5974504639855552, -0.5730882118347336, -0.5689916185212309, -0.5801336471924963, -0.5278622712008364, -0.5351854250173593, -0.5477728209192625, -0.5621224149581925, -0.5328653955594784, -0.5643811702127705, -0.5835437017564421, -0.5662156578964049, -0.5579218325801425, -0.5489223209263231, -0.5606094698245686, -0.5754271266142482, -0.5797618022645681, -0.6039115450854067, -0.6168697470100849, -0.6388392145639822, -0.6462942004797638, -0.6698935258353312, -0.6890246499512586, -0.66707542643237, -0.6473380122413247, -0.6305196124547416, -0.6187898632100559, -0.6058921901917408, -0.6121777941898109, -0.6337965228654382, -0.637715516081464, -0.6679596314639117, -0.6710229773531821, -0.644142604582935, -0.6378640099928822, -0.654864267272586, -0.6658065934646268, -0.6710832504372783, -0.6630329734103806, -0.6878881783410032, -0.6972384611164506, -0.6912878752114258, -0.724664660321145, -0.7362265025486837, -0.7398635893297466, -0.730567654876966, -0.7628331077312427, -0.7553847374989545, -0.7627666913243093, -0.7941018001680524, -0.8103173718497487, -0.8283922309683527, -0.8482266588552697, -0.8327977783282068, -0.8388869345936144, -0.8662093863479412, -0.8621883510465111, -0.8888352127016385, -0.8720855886768094, -0.8785390575648893, -0.8320911455539044, -0.8606152735758065, -0.8588008846275181, -0.8750547614601878, -0.8559680858504711, -0.8675196680886643, -0.8663324339058099, -0.8583305677078676, -0.8498493941049023, -0.8652776393936962, -0.8638888736048344, -0.8774825242588694, -0.8686085173323851, -0.8509983184405481, -0.8409005446486864, -0.8373803867071014, -0.849556449767556, -0.8452574122081814]",True,0.6000,0.4000,0.5000,0.1000,0.2000,0.0100,2.0000
26,nogo,Correct Rejection,0,2.0000,"[0.0, 0.03537222172357613, 0.037850305728796385, 0.01916670337695048, 0.020726151898232476, 0.018763625467661922, 0.051248440857658596, 0.039949624681895446, 0.07510115323476668, 0.07761426594608159, 0.0752568030976358, 0.0901487409193277, 0.09127221784951524, 0.06998794381389699, 0.09817491183137961, 0.08187289651626153, 0.08584071919978674, 0.08330339023616845, 0.08612811794684365, 0.08428620609541586, 0.11111965058037036, 0.09956717250260766, 0.12716485963395924, 0.13068704204191509, 0.07208348705544455, 0.07259861788118153, 0.03830824939863589, 0.004852394475800409, -0.001438646445171667, -0.0036381481625505615, -0.03604811481530253, -0.03289823677709359, -0.0311070314845331, -0.060178231992741374, -0.04821629567919787, -0.06422724374972526, -0.06286371743620849, -0.07617407809064154, -0.08637861774745072, -0.09137137554137932, -0.09847196258811974, -0.1037073804919696, -0.13743991404141687, -0.13486741729779864, -0.13975341023252613, -0.15679073207507568, -0.16586551729896903, -0.14720646247705876, -0.16547012454344484, -0.17967309360981415, -0.20382150222660314, -0.20355657318260184, -0.18587538587941216, -0.2103784362336738, -0.2561517742410545, -0.2745730052473102, -0.2753864692682823, -0.24988938908719663, -0.25651061871013797, -0.2473904918906975, -0.2586275620209305, -0.25907142795668153, -0.2531734011495322, -0.28181538733214584, -0.2758627264742558, -0.2941279166129253, -0.30255446004447006, -0.2833375309590015, -0.2969318360487482, -0.3116555183129588, -0.32689098924075993, -0.36018380622037455, -0.3676787671655691, -0.36292387853441926, -0.3707660349848728, -0.39166083318889316, -0.3940153518083794, -0.3965677134883355, -0.425546122393569, -0.4390783988076606, -0.44979072095332484, -0.4513342629958958, -0.46867068248745414, -0.42672284398999083, -0.3946324934710697, -0.4003271864831287, -0.42294655486407906, -0.40795003720427647, -0.4073817002644132, -0.4245157082368751, -0.4123929048227254, -0.4151539532852767, -0.4207810150418496, -0.44805644024298275, -0.4529001504313036, -0.4606842878314679, -0.4459626882112866, -0.41527908936775665, -0.42688738505132895, -0.4159142994400736, -0.399358307928582, -0.4096590359019168, -0.4190853263232706, -0.4301553106592985, -0.46377311465056414, -0.4783967583012549, -0.43213375931457776, -0.4330917211320852, -0.4691634605898105, -0.4442351697021137, -0.4599208654055847, -0.4859349865348305, -0.511976505233075, -0.4794034047010146, -0.4717644941669257, -0.48151540975525253, -0.48881100640852526, -0.4908827465968606, -0.47785255218876427, -0.4617954453635442, -0.4711094781898257, -0.49825301249186754, -0.4667717716186186, -0.45859996285661775, -0.48358011464033573, -0.4782309083871049, -0.45559735414111885, -0.500382124732412, -0.5036468504888613, -0.56203699895921, -0.5541725772053632, -0.5599741590161925, -0.5779493035312312, -0.5817340383776546, -0.5989434954238291, -0.6030810711565942, -0.5957875321903281, -0.6004685363144783, -0.6054918319650384, -0.606736666936616, -0.6507287712702146, -0.6689176700762745, -0.6683721119605152, -0.6614080302226157, -0.6743664744049073, -0.6907977743058129, -0.7150834234090847, -0.7164302381103773, -0.7364892498006755, -0.7062948865683766, -0.7156414217457016, -0.6843317873319532, -0.671379299693249, -0.6598599412715125, -0.6605722509035621, -0.7058243357004175, -0.7068776730711968, -0.6795403972137163, -0.67312956653683, -0.6547070255150201, -0.6542400728848258, -0.6413560473289455, -0.651607490407576, -0.6390580430574375, -0.6585977165959138, -0.6670151647944917, -0.6453259698142587, -0.6591701126471105, -0.6482659392434788, -0.6500020460241652, -0.6746666807845978, -0.6634139181575914, -0.64798422750232, -0.6297368319786262, -0.6171245407563215, -0.5748684372703154, -0.588820081304273, -0.5963949533758143, -0.5886363657352692, -0.5997671082909444, -0.6126100967293221, -0.6234752501288288, -0.6704334649673844, -0.6836136419671839, -0.6931602373210902, -0.6731817392010475, -0.7007413428521546, -0.698763724862229, -0.7292988085862345, -0.7809453995981204, -0.7911736273809575]",True,0.6000,0.4000,0.5000,0.1000,0.2000,0.0100,2.0000
27,go,Hit,1,0.8200,"[0.0, 0.007381905630258961, 0.057063295550002224, 0.01991248343909615, 0.021705560348130086, 0.01677318484210978, -0.003653718174656373, -0.0033072600531572714, -0.017585424285008946, 0.004418951385289114, -0.018871366954690872, -0.0040037014623712786, -0.03125939598480826, -0.0008199407253696375, -0.007673338484775189, 0.017806473426079758, 0.01193891603799407, 0.05814926743935926, 0.10785880957316359, 0.13622082967507987, 0.1552373050756694, 0.12669984023780329, 0.11043373364049401, 0.09184026310119174, 0.08182514626374658, 0.12765106638398066, 0.12680097533288148, 0.11278526410208901, 0.08440008501340326, 0.09134185155694396, 0.07572459740575885, 0.07768385372366138, 0.06448786875428257, 0.06704098172237646, 0.09253880261639613, 0.14299548392972988, 0.1328406823354799, 0.14093254411219658, 0.18228977089039494, 0.17119358075652716, 0.17466331097669588, 0.18726237471248117, 0.16977902074701495, 0.15197915258452127, 0.15794233695177554, 0.18585202155530506, 0.18421291977090767, 0.2125568870134308, 0.23976028671343716, 0.225359749237504, 0.21576690367598128, 0.24618367334710983, 0.27265738143785967, 0.28090157258309356, 0.2758894863259181, 0.2892100992029461, 0.27143845093766056, 0.28339282215603745, 0.2835767885653987, 0.2822137346864261, 0.31973745556435357, 0.3580931148428894, 0.36428000731442933, 0.38278341226050344, 0.39495108455388256, 0.4054097084982383, 0.45246751253697387, 0.4391725564466919, 0.4458985476942532, 0.4458840883762443, 0.4842491616412374, 0.48891192872760103, 0.5036539336393758]",False,0.6000,0.4000,0.5000,0.1000,0.2000,0.0100,2.0000
28,go,Hit,1,0.8100,"[0.0, 0.00613619603686658, -0.007887445349950017, 0.027611767520776796, 0.0545778273123652, 0.05047783771122036, 0.026681812333480208, 0.014889113295797044, -0.00037919199342741766, 0.015721923070660993, 0.04400262637031252, 0.08547770011950587, 0.0940715490784884, 0.11354569360195435, 0.089238994558416, 0.1123113098338417, 0.11431456154881815, 0.09787656129828257, 0.11648587477334595, 0.10457530810261977, 0.11528107222531815, 0.12115776779790643, 0.09773567346305534, 0.12950315267056012, 0.09545529807224637, 0.12290098854038392, 0.11761111839449956, 0.11510023326687906, 0.11036429112671012, 0.11105850835410659, 0.11567185388738647, 0.09984243753917185, 0.09328542170967684, 0.1016352025642927, 0.10950681207079795, 0.11315166433596445, 0.10964931689330269, 0.0826190757343351, 0.11395026219868813, 0.1254284129787294, 0.11263093872981311, 0.11736236854007281, 0.10786039314260289, 0.13176329024466124, 0.09222489263367785, 0.08315000843918982, 0.08426348571836306, 0.09550063099755647, 0.13977295480091828, 0.15617692059891106, 0.18966532589938218, 0.20201089431861216, 0.18482740119203467, 0.20258604188835, 0.17900416509652337, 0.2015631236596406, 0.22947278213430317, 0.26586949308779556, 0.2564064518120324, 0.25861082988460826, 0.26836457499777255, 0.2762195029355475, 0.29191681595355695, 0.31756939606702833, 0.32352194146181007, 0.3804636327507643, 0.4238630451118731, 0.43529630840513617, 0.4592909545521534, 0.4819854355067991, 0.4848186744422166, 0.5129724858639138]",False,0.6000,0.4000,0.5000,0.1000,0.2000,0.0100,2.0000
29,nogo,Correct Rejection,0,2.0000,"[0.0, -0.003904668146932277, 0.0314872874423273, 0.04385737728917104, 0.013278961703478323, -0.012095879073754326, 0.0077818982821121485, 0.0038551533763626676, -0.03174271415054703, -0.03618856434325976, -0.028436106029809234, -0.04274887042821842, -0.038764862069412744, -0.009272530466707521, -0.03296801976205646, -0.08411210157167752, -0.10477409794552096, -0.13219699524837863, -0.17927060111896304, -0.19915136418784488, -0.23981746687199035, -0.2347169701022222, -0.24897348340836897, -0.24418863568817145, -0.22094543425713203, -0.19690987320287345, -0.20070467500628072, -0.1835345595906019, -0.19320399611523684, -0.18599746486228094, -0.1847970713529201, -0.19752118026568125, -0.20127195885350366, -0.21593580574433976, -0.24636911602291528, -0.23853687135189003, -0.20452858741374969, -0.19426377247092796, -0.20005542424018535, -0.1855290351189832, -0.2234476193951155, -0.24123201805783454, -0.24226117094364916, -0.1970430027077655, -0.2102134915435247, -0.16538237760193414, -0.19824021444850637, -0.18793524445420168, -0.1887400951261384, -0.21535790417662984, -0.2119070225851637, -0.20302306751636534, -0.1694996345255614, -0.16082379081066586, -0.17798679052582247, -0.17852290641067387, -0.16606945832115924, -0.14565036800054626, -0.16329718151426664, -0.1310487094855204, -0.1429355381693281, -0.12738690351566268, -0.14954934290138566, -0.16625866346071952, -0.18919683585580527, -0.1698084534150278, -0.15752421362029492, -0.14671850505869238, -0.16074728119851014, -0.1692726202346625, -0.15992732781456515, -0.14425611806352634, -0.14835935612897008, -0.15845559835077702, -0.1290323558127956, -0.11171215162151486, -0.1280514778184731, -0.15407992337503387, -0.161941098282902, -0.15000949216176865, -0.17401757336532997, -0.1911055725744339, -0.1947797011616213, -0.1843493860397861, -0.18226275464677272, -0.14587721714875157, -0.16566857863934972, -0.15733020048740354, -0.12435728530585355, -0.14182897810406786, -0.1281104515543972, -0.08305033216680205, -0.07140470438306247, -0.07249315850123804, -0.087488228147174, -0.10502791266829808, -0.10253589746537585, -0.08934159558060066, -0.07238265259192209, -0.06510264196466647, -0.08376835638620074, -0.1138739574050151, -0.12736430665057336, -0.12178813715314638, -0.10443952024701667, -0.08215403838141716, -0.08531047714701621, -0.09041907949441197, -0.08902552039489159, -0.09275111707140128, -0.05889115107681831, -0.07636531320731896, -0.07195409407966004, -0.058266998758294705, -0.08624802613228977, -0.09959722118584785, -0.10765675452378655, -0.1478765846064909, -0.18687698387611137, -0.1606721860075213, -0.15785549934582616, -0.18251770300845382, -0.17562370951674863, -0.1658841696731592, -0.1473675966894138, -0.1295828471734709, -0.13570666797338507, -0.17513739401457545, -0.1604251845496673, -0.16651416891107143, -0.16727303854514092, -0.1606056195529126, -0.18513753310753653, -0.1744110228785413, -0.1748866707756815, -0.16531768565380592, -0.16465511934429727, -0.18086571357641262, -0.19582746842462143, -0.23294342440328641, -0.21038763076654046, -0.2265208568252277, -0.24364180372432348, -0.25263747949636406, -0.2601875123162375, -0.21841315240627418, -0.21413446727196692, -0.21590807993305755, -0.25092199761052614, -0.24443830879039147, -0.29507621472542056, -0.33666421272358676, -0.3469194996300286, -0.32757426669551826, -0.34811926153914174, -0.3880277650438923, -0.3510782212304127, -0.33198935366947985, -0.371628620625555, -0.36832129856675355, -0.33169144749623053, -0.34179453513032815, -0.33474953965745, -0.327914938864777, -0.29718637210830595, -0.2954746744219889, -0.28445698360481303, -0.26827777084765775, -0.25969378727788983, -0.2891218978426213, -0.2758137749473095, -0.28353220826743747, -0.29660452851839614, -0.2683961598554096, -0.2559376122391907, -0.2959491098574326, -0.30217824090590983, -0.2846175003665398, -0.3304045536479737, -0.3196316696291446, -0.3218520870799265, -0.3220982797933749, -0.3272500746738008, -0.31829538289890846, -0.35186729766063646, -0.33946731115086404, -0.3199957957696395, -0.3162751354579578, -0.30439321012518505, -0.3233842405919188, -0.3364291323878444]",True,0.6000,0.4000,0.5000,0.1000,0.2000,0.0100,2.0000
30,go,Hit,1,1.1700,"[0.0, 0.025300799737595324, 0.05079531985054856, 0.0651104168241888, 0.05393519951139055, 0.06805786468427891, 0.0880755242067431, 0.0948809988838808, 0.12696033860164002, 0.12420782505536004, 0.1276834619353956, 0.1436370144697532, 0.16002119061972048, 0.14053052504564778, 0.13337976539961072, 0.16390240409564136, 0.18434714201557484, 0.19863332949930274, 0.2253301538279487, 0.22001510297805557, 0.20987216764778027, 0.2118601704826021, 0.19207422240424574, 0.17853249805333757, 0.14719910784345547, 0.1644984486468624, 0.190372179340506, 0.19824809537218288, 0.1972779299418193, 0.22103876388419966, 0.1803723899183053, 0.15872374288267366, 0.17835952557781787, 0.20009005382220243, 0.22180955892878007, 0.1946698239990843, 0.16089880391812067, 0.14399283278251504, 0.12192162348904567, 0.09624965361818055, 0.10731128130326079, 0.07751199017002, 0.05945224812521574, 0.0498463340501684, 0.10173020848238282, 0.06735782286810381, 0.11683482049874977, 0.14038613374391412, 0.1320241810357338, 0.14482125344602062, 0.16016883914328034, 0.17073620086168878, 0.15865707492382183, 0.14836390573268257, 0.14363067527739143, 0.1405254191951329, 0.1550588451530748, 0.12891694309095766, 0.08860208727305596, 0.0511422724410582, 0.07049264017432826, 0.10772183713220528, 0.09872304193661512, 0.1214873475713266, 0.11184011743332303, 0.07031201660145033, 0.1017453082207811, 0.13606401245547742, 0.152505106197859, 0.17501987395102936, 0.1875475076948088, 0.2046714556608563, 0.2269873715392598, 0.22588510206859516, 0.25313231704038675, 0.22686336513998734, 0.2025918343096929, 0.22695625453294435, 0.24749802674540683, 0.2614112535161891, 0.2730266021559025, 0.2617921727558266, 0.23998773621382385, 0.2702292054772493, 0.2757823940718816, 0.2934419685096837, 0.3295513181799382, 0.3274566708787551, 0.33143479006161386, 0.3388835762412545, 0.3559966162158335, 0.3740946453313895, 0.38115256650899687, 0.36244236064259167, 0.39507341161156195, 0.35723493847232757, 0.41711691273923124, 0.4353718021922422, 0.4274231093305647, 0.4169656554262892, 0.3912662645424215, 0.41606701674889185, 0.3977756125300697, 0.3983308812852895, 0.43987000968074086, 0.42403731256443633, 0.49863985319708914, 0.5198107973830343]",False,0.6000,0.4000,0.5000,0.1000,0.2000,0.0100,2.0000
31,nogo,Correct Rejection,0,2.0000,"[0.0, 0.003739995426161452, -0.002583275539540579, 0.010770559327249917, 0.005767304662885024, -0.003170955924299775, -0.044152193614400634, -0.02994941458606467, -0.03180830763650648, -0.061582973807447886, -0.034608026257146624, -0.000797016696216811, 0.008011835554220956, -0.026329632670834754, -0.03273701559817801, -0.050160882288094406, -0.02347820900540441, -0.03793420736081063, -0.05611024037473984, -0.030241754384864525, -0.07022384356592384, -0.0488469418422634, -0.04347770241248611, -0.038620112528069225, -0.09606661721451418, -0.07930433630995824, -0.0730270181646357, -0.059308202544443835, -0.04008040678209836, -0.056787397969489936, -0.07216206314042985, -0.035732635259858064, -0.05314338932047291, -0.04420952147285161, 0.004347409404328137, 0.0143686660294718, -0.02208244966393181, -0.03513892723158182, -0.033793373229530056, -0.016876878063485135, -0.024447922259859065, -0.02925310164150131, -0.0382924007580896, -0.03497845652062779, 0.013722727390200307, -0.004811341894590201, -0.00412745095068639, -0.01794929992869587, -0.03649621720660412, -0.06093951827431725, -0.06332747782762578, -0.045196793971366445, -0.018336497733906772, -0.011818363873936635, -0.02911302339444432, -0.022124186931806504, 0.002505221198694556, 0.022040764960989574, -0.0180336656592129, -0.010571104884684525, -0.0520902777355403, -0.032620932171181546, -0.024345651976577405, -0.0066195803707087345, 0.014581328321280097, -0.003922939991622416, -0.004149268642981768, -0.04236809983190894, -0.03239827155100182, -0.056890258064113824, -0.06525331376596273, -0.08032209559896601, -0.06861261909863141, -0.04486281179522773, -0.04247016145618574, -0.049344300850209195, -0.05342552358881844, -0.045695699741490445, -0.07094413211577186, -0.0874700629687205, -0.08110360327931176, -0.059509410859582695, -0.07526390902086774, -0.07112721756293107, -0.0407165683538139, -0.06025735720576453, -0.03753171021329192, -0.0652342505332244, -0.07144149578765106, -0.058952671904783746, -0.03452266762178162, -0.05399914018346204, -0.04557328488143983, -0.04495687245241342, -0.05106322241808162, -0.08184128362866916, -0.09978951719038617, -0.14454068851920665, -0.11550475525992426, -0.12695053591264413, -0.11313337261775991, -0.08957202555485327, -0.09323791807510118, -0.12985877779280486, -0.1355304647889174, -0.13549120938064116, -0.1231576178301163, -0.13987292343545596, -0.10970147312422227, -0.12915544820049962, -0.14851689731250217, -0.1401667542577985, -0.13831488955238963, -0.12035337538494212, -0.11411372837538113, -0.1436139268545293, -0.12161840164858244, -0.14064100334418755, -0.13946625917967398, -0.14509109526874497, -0.12781173275758567, -0.1271289015827068, -0.1298531070789498, -0.1439260242001941, -0.15490488673271527, -0.20427167340742056, -0.21274771356248673, -0.20357965732200822, -0.24195710249354258, -0.2157587230956286, -0.23398302657869166, -0.24818403791714208, -0.22865401808175315, -0.2122597703696078, -0.18965883769131553, -0.1827334455631817, -0.19115780147891032, -0.18976454038292084, -0.22315028367223863, -0.24064118382552308, -0.23256134030685544, -0.2622318012462739, -0.2588625503709145, -0.2640245430970174, -0.28036714434663623, -0.3171769530068512, -0.3407256623936278, -0.38075739932291064, -0.37375955039700137, -0.3282315762633749, -0.29259141494758145, -0.30801133654166435, -0.3597921587534945, -0.3784027726753133, -0.3627220373003051, -0.3757627146740222, -0.3913877406288557, -0.41679623081796785, -0.43469532842657277, -0.4492122528862158, -0.44182539085367634, -0.46690324163423, -0.4540774717196104, -0.459549569535882, -0.4750707332516922, -0.5080730856486401, -0.48391918420049934, -0.490381466788101, -0.463671616771663, -0.4842766586619056, -0.4910086382732159, -0.5120474551041913, -0.5193626640499994, -0.5109539317264236, -0.5245950392697587, -0.5250922352475977, -0.5478979406714578, -0.5622051615362795, -0.5526659347596062, -0.5406580954046771, -0.559452662670529, -0.5656697606159077, -0.5345811646590095, -0.5405632715717588, -0.5432166061479843, -0.5214360416233929, -0.5290562179153754, -0.5369158445861256, -0.5682395195523122, -0.5841072269482318, -0.578245482958377]",True,0.6000,0.4000,0.5000,0.1000,0.2000,0.0100,2.0000
32,nogo,Correct Rejection,0,2.0000,"[0.0, 0.004618504385087931, -0.030968435388849094, -0.029640284395625487, -0.07381351841745393, -0.09359473399596341, -0.07761935375572178, -0.08588887940631801, -0.08317936336346289, -0.07824436923611384, -0.1106906526250761, -0.11195261202673422, -0.13045336957130024, -0.14461936360332492, -0.13024127136747496, -0.12645009432235269, -0.13503273129153898, -0.14357360595451849, -0.17618675679868084, -0.1577809639590702, -0.13895625080375235, -0.12612064402707662, -0.12635776410341074, -0.15067539422870813, -0.16204894035143994, -0.19667732512834402, -0.18628261239736146, -0.16725810631522917, -0.16575765884335952, -0.1735495260064872, -0.18354538119853378, -0.17348741525575415, -0.15903419253328402, -0.16302001810348155, -0.14190111667444677, -0.16679343381847905, -0.18200406501416025, -0.16874702553341075, -0.16142858938206478, -0.20714189077301337, -0.2194021975281118, -0.20873302963584436, -0.24343065167295425, -0.30877640024689545, -0.3298549195623336, -0.314428247750668, -0.3260343574616753, -0.30892305000683, -0.2949636616663086, -0.3267437981081024, -0.306564828050733, -0.3246686391514103, -0.3029851433380041, -0.2629155132124465, -0.29386413827109625, -0.30633481306550836, -0.3059800261786886, -0.30823190754585833, -0.31557105900410265, -0.3405344260015403, -0.3629222992294352, -0.3910765318149004, -0.4202970225651279, -0.42475222654749234, -0.43409416824872116, -0.4183650621907073, -0.42906241140946383, -0.44782816413267423, -0.396861003255773, -0.40731545732532776, -0.4435410900493116, -0.4460306920962515, -0.4551680236053259, -0.4457007540341289, -0.4406892083303037, -0.41575774446034, -0.4530546317954527, -0.4702855181654899, -0.5123052956990647, -0.5254904595909852, -0.5861769452694442, -0.5617948579750884, -0.5522834728094933, -0.5352614802625227, -0.5528623287021808, -0.5519825814736539, -0.5222955914026282, -0.5053738226935063, -0.4978320823542957, -0.4978697511239814, -0.5017114687118719, -0.5064390060488455, -0.5032474862539904, -0.49440444818534984, -0.4960065156099798, -0.4911412172664721, -0.4658076770765268, -0.5085094178904968, -0.5044067853110175, -0.5067258171160381, -0.5350960199138087, -0.5311182038726548, -0.5407681357842377, -0.558602359257749, -0.5416146454081033, -0.5409574641024474, -0.5233180552234675, -0.569300981239314, -0.5512488709850687, -0.5623176352181001, -0.5701056162128086, -0.5979127398339937, -0.5932931772329628, -0.6065318076713361, -0.622107790644164, -0.6377849197468425, -0.6278418134906841, -0.6428120842434552, -0.6603568582328408, -0.6701236347067581, -0.6799680280309043, -0.6976260171217339, -0.7204767265918066, -0.7597725771103329, -0.7258979709856533, -0.7635169079140326, -0.7174240026160564, -0.724897994988138, -0.7655628790239485, -0.7722881468881301, -0.7896403124808964, -0.7772718096985713, -0.7774573336978136, -0.7898342362029372, -0.7791937745890558, -0.8125382278474819, -0.8141183535398159, -0.8218671574276182, -0.8226106530864208, -0.8261531422453099, -0.823069259571632, -0.8100578394507773, -0.8220799713179552, -0.8235974972292195, -0.828575630948478, -0.855067941383576, -0.8413185503123265, -0.851878997296762, -0.8403059492841484, -0.8268151831990822, -0.7904074652904014, -0.793169155038573, -0.8046199648827186, -0.8455616770773383, -0.8365884467092983, -0.8394228790969704, -0.8588934673915097, -0.8768918840840882, -0.8812107270584393, -0.8825426848538027, -0.8734256168584533, -0.8649698790983205, -0.8538963568601149, -0.8697416238541942, -0.8544134120625954, -0.9029302504120433, -0.8908734392442117, -0.903827782997427, -0.9414376630869412, -0.9202565454216338, -0.8990955578607905, -0.8906086706603958, -0.9051560633692767, -0.9374018328221843, -0.9357425865186846, -0.926042617470717, -0.9524672894124485, -0.9662283118915916, -0.9538508269406704, -0.9486151765927875, -0.9491532272159136, -0.9562650253640801, -0.9548479445934466, -0.9988814407949707, -1.0113984468284511, -1.0231730219197923, -1.030577551643702, -1.0439303777218094, -1.0625213331863532, -1.0891969569569029, -1.1044867076049378]",True,0.6000,0.4000,0.5000,0.1000,0.2000,0.0100,2.0000
33,go,Miss,0,2.0000,"[0.0, 0.01148904805522832, -0.009270680649444609, -0.03254321603582387, -0.005613362646118343, -0.03567554138180979, -0.034125719936351044, 0.021671959597129385, 0.007897833510185222, 0.021902082884154857, -0.001040708311192684, -0.008239860087309526, -0.023622977263390188, -0.010660673993687215, 0.016404147123473985, 0.03510737012225046, 0.05802319582023106, 0.06210869671010032, 0.06792421715640701, 0.054653797754779375, 0.02368159198261808, 0.02415961070414723, 0.049663190603777864, 0.02119742843226482, 0.03355190975876615, 0.015228399431737184, 0.01929140963121233, -0.00010624648660896921, 0.005602468926771413, 0.013480516356350787, 0.0029848948964882136, 0.008922054093380554, 0.03615858362285972, 0.0534598482117612, 0.09705773247544947, 0.10739559418650776, 0.1262111947491377, 0.1138681294832881, 0.13322200667348819, 0.13107036393597477, 0.1510067540482712, 0.1431172993125954, 0.10954289275331175, 0.14269334605158426, 0.12697298618088818, 0.13834352964644475, 0.1401865468732963, 0.13163483065171086, 0.12560399893443389, 0.09135810082325085, 0.10679936556313308, 0.15818975565283083, 0.16247792515451834, 0.16634900511762588, 0.16550818092341507, 0.16331696891532949, 0.18276109738481405, 0.17201699648215038, 0.18071045592534776, 0.15773783435415678, 0.1271724972629931, 0.11458736219544284, 0.13533653672735524, 0.147259227581511, 0.14639011228245566, 0.14739312163366713, 0.15421859005068622, 0.13243892935700052, 0.15194856914796728, 0.18066281513847327, 0.1639066525256586, 0.14406162572931014, 0.16757944082004722, 0.18885022213934127, 0.1991637724022961, 0.20192014922230042, 0.2213685682474763, 0.2244657908038349, 0.21011436930422084, 0.16673382673385248, 0.17190678294290282, 0.17444352730076404, 0.16971331696427283, 0.16843754719493595, 0.18635853078976755, 0.19304763403648303, 0.21157142839095477, 0.22506450079686216, 0.2268085202654748, 0.21785757473521852, 0.1930814912817868, 0.15797717776448914, 0.15663725662122147, 0.19003503292044238, 0.18959080001572837, 0.20234343523774445, 0.19505831970738013, 0.19613921589940878, 0.21258606412651868, 0.22683270690628857, 0.18338285918462832, 0.1826865682193627, 0.1756144026451649, 0.20786464960255555, 0.21507563923525938, 0.23412501316921147, 0.2426473765383927, 0.2683720358607181, 0.2849069679940289, 0.29318472190442385, 0.2807005212873357, 0.31079165480671384, 0.2900165093287839, 0.2817449197956131, 0.2954289845392288, 0.27213088161333365, 0.3294662632431158, 0.3196009299798411, 0.3268424096000335, 0.3015890373851411, 0.3229907471631686, 0.3384904079143546, 0.32548145510720994, 0.31663158216987536, 0.28406809556734713, 0.2626991170226002, 0.27238374667551074, 0.2659998225891742, 0.24767405168403878, 0.25784890978280445, 0.2609861386361115, 0.23529433989623794, 0.26340087346839036, 0.2772858378918903, 0.2654488478619086, 0.23862698586216238, 0.254078413367434, 0.25156409500001714, 0.24509757214457562, 0.22064163629620082, 0.20902989808247047, 0.1832301129489154, 0.16531664305778285, 0.1751527767701017, 0.17513800731079396, 0.20270795895294122, 0.19378993193214214, 0.21334481415148387, 0.18096239345882573, 0.19556733530514392, 0.21578743514841475, 0.22463890909530732, 0.23103248541494623, 0.25030284597838864, 0.2847692517090998, 0.2807053014130899, 0.29636052374819793, 0.3012102356827361, 0.28952470799126545, 0.30113565881969934, 0.27005493951758375, 0.32564097401340425, 0.3199610090571058, 0.3462188572940972, 0.34064068040356094, 0.32565202440832386, 0.3234440146273802, 0.31572709214288613, 0.30733588451056354, 0.34504560237840987, 0.30685062866210955, 0.29459449928854603, 0.3321464477055089, 0.34378359827671356, 0.3723141609964229, 0.3676475871735415, 0.3720170941595752, 0.3554208676431456, 0.3563243530408894, 0.3265135345823189, 0.34808122181889384, 0.3327719503617235, 0.32458753536878987, 0.33599183055767207, 0.36041464671339446, 0.37474867304434245, 0.3735848474329555, 0.35579603389340486, 0.3640849544689992, 0.4096470731117933, 0.39554466139988703]",True,0.6000,0.4000,0.5000,0.1000,0.2000,0.0100,2.0000
34,go,Hit,1,0.7300,"[0.0, 0.025016028348506456, 0.014000618892099281, 0.0089065238668405, -0.012682114308895558, 0.02012878905911008, 0.041139666365265004, 0.016806307267354582, 0.03270497041318793, 0.021704695882497724, 0.03454309133279928, 0.023135038894678307, 0.024649523000206928, 0.03149194302742394, 0.03418769417145752, 0.04822250625498126, 0.06284469703589075, 0.043711599329587, 0.06336578599825614, 0.06982617719279471, 0.026549832620392705, 0.04274676702077819, 0.06621153043940592, 0.0932028432521186, 0.05715278725220723, 0.10072593491059775, 0.1295804206306156, 0.14510765087634445, 0.15561410141585902, 0.1933896419807189, 0.19604142692858526, 0.19542983466230826, 0.2136106445572704, 0.19071219854560112, 0.18231772671555105, 0.1901769219989885, 0.18712203363808638, 0.1685903422541155, 0.1863014064325032, 0.21408100617964462, 0.22266864417213192, 0.25016906303735514, 0.24607050320111384, 0.28434067523469403, 0.3052971474611441, 0.3099023409037254, 0.30905235855169466, 0.30418735079229897, 0.3119980806838412, 0.31896398358479344, 0.3478067099124422, 0.33921916061044094, 0.3493108300507542, 0.3642249218840478, 0.37150105338610345, 0.4007709786674316, 0.4227343439163737, 0.45550678538408446, 0.4666395632035994, 0.45094308916708176, 0.4728025057051545, 0.4718208575317812, 0.4924953227706248, 0.5124386942530907]",False,0.6000,0.4000,0.5000,0.1000,0.2000,0.0100,2.0000
35,go,Hit,1,1.2700,"[0.0, -0.001000670752071128, -0.023397790471551938, -0.006374927509853273, -0.0234859623967386, -0.023505662236873153, 0.0013892799371953111, 0.012853288584206882, 0.030207933585117086, 0.047403576836581085, 0.042900250338137644, 0.06961409977522665, 0.07117049054070686, 0.07650422575253897, 0.09193776577041302, 0.06286076087141451, 0.04599543928487664, 0.051737843879240214, 0.059829584544229576, 0.07862183945143686, 0.07529077654795044, 0.09529354029659765, 0.1200707170258786, 0.1162587973423526, 0.10993395730344391, 0.1395678524415779, 0.13777729895389348, 0.15284954360640562, 0.13939025104781086, 0.11860971255722175, 0.12449231914705132, 0.13366933509429677, 0.135020642755128, 0.16799992482094292, 0.19204977309586346, 0.20202099468167115, 0.19430370682411352, 0.20253716658996146, 0.16945561647728308, 0.17242326352384812, 0.16275147591958175, 0.1392497242395598, 0.16549711850767498, 0.1849835257810136, 0.20108366235826042, 0.20849601177864066, 0.21509634641907693, 0.24749536976943143, 0.25071731820583965, 0.2553750732885309, 0.24983037851135043, 0.2890028533529151, 0.30769969242397094, 0.29505504852307046, 0.30071501556899594, 0.3133629718983301, 0.3280516599150596, 0.3490487962980713, 0.35162774296737176, 0.34810090609031774, 0.33577177158373384, 0.32870029365092285, 0.3618101692597621, 0.3583734186948632, 0.336423961828568, 0.3386156695629472, 0.3485022703493101, 0.3485132096438211, 0.3649037310906638, 0.3667456566326751, 0.3462913704827564, 0.34941798848174155, 0.2899909330543879, 0.29996451136473246, 0.29859520487801977, 0.32839414319252147, 0.34268974860223284, 0.3196204542786845, 0.34956378095034607, 0.3576661000783818, 0.3726795989794507, 0.38692570102641166, 0.34881353863920767, 0.3869064698087126, 0.3905248054079128, 0.41935645608605043, 0.41966512541822376, 0.3692153100468572, 0.36119600255213374, 0.33736356310153864, 0.32149669743866643, 0.3577614627424502, 0.33801105497534717, 0.33606571632602067, 0.31117835160185403, 0.3431163491241024, 0.3233785274443486, 0.3240795048636586, 0.35868149595623167, 0.34074358294222573, 0.3437346259301533, 0.3112854848570994, 0.32514206587832856, 0.3273200866676298, 0.33347326980371655, 0.35222134775894764, 0.36249436356562437, 0.3526981070530426, 0.37205038653988226, 0.36275035157811947, 0.40257374846264915, 0.41550810148193523, 0.43568652180491346, 0.4593784138117399, 0.4457721256360434, 0.4483700514671366, 0.47334067469727137, 0.5166951658011368]",False,0.6000,0.4000,0.5000,0.1000,0.2000,0.0100,2.0000
36,nogo,Correct Rejection,0,2.0000,"[0.0, -0.03574200985789694, -0.05910170073930689, -0.06892411264560473, -0.10214384872399877, -0.08733606059982364, -0.09039635706121542, -0.06880405720554567, -0.08627591424680085, -0.10752627604944716, -0.13577319675051816, -0.14829076796091553, -0.16101624655007563, -0.19205518572484015, -0.23415375438439318, -0.25713541311829086, -0.24623979966859924, -0.23605168394108156, -0.2358903823270139, -0.21812113509163278, -0.2303965278121365, -0.2377607693375618, -0.24787541268965987, -0.26679164580627457, -0.25751740195789247, -0.25282545859899014, -0.24668086895655505, -0.2558036942079983, -0.22710506083254253, -0.24246642789307535, -0.2538110117039589, -0.26198697506642604, -0.29191091587094675, -0.289550082194325, -0.26668167337654985, -0.26977123050014373, -0.2936348639530209, -0.27685651659420063, -0.284209303023443, -0.29444839815249874, -0.30073368816934765, -0.293297685094534, -0.3163131361985489, -0.31283560237685665, -0.296662347481146, -0.27567549368570343, -0.30289483666067196, -0.2906884731106642, -0.3156035809108438, -0.2948948687153166, -0.2999471404761469, -0.31477284581235637, -0.3168526700616325, -0.2838675459227791, -0.2486064608117736, -0.2376396621626177, -0.2740367469105546, -0.294310603261799, -0.3152674843775304, -0.33573085812453823, -0.3599126138500335, -0.34352271382254324, -0.34469587929097484, -0.39367605186895466, -0.3701428223977305, -0.35165886415035247, -0.3801317555210896, -0.37640986702406193, -0.4026444903187531, -0.41213290930458313, -0.4079645860481388, -0.4267314506493657, -0.4200959069936431, -0.4171845446901557, -0.4169701764707885, -0.4262800490903117, -0.4201673528220716, -0.4240676834195467, -0.44141539335770524, -0.47121336890013127, -0.4745980892122152, -0.49389005868795116, -0.4922727691240864, -0.511048321337936, -0.5112580027582121, -0.51229033740204, -0.5332742137873963, -0.5511757899638264, -0.5882528193053314, -0.5719609017089021, -0.5595617010038739, -0.5949353061960692, -0.5853233311768181, -0.5917604794692355, -0.5866992809600085, -0.5873536979651396, -0.5981869802052014, -0.5805750805962876, -0.5908614871892396, -0.6024026165585981, -0.6175902418732778, -0.6199283628768278, -0.6286262953842526, -0.5979535351873471, -0.6144204703058569, -0.5967237222842412, -0.6170773412482549, -0.6429411391841773, -0.6506794877426038, -0.6691995748187547, -0.6880645079394284, -0.68906393026715, -0.6829646055169902, -0.6885052936070863, -0.682481878712379, -0.6822292978329496, -0.6777288064721672, -0.6804273164443033, -0.6819969641551338, -0.6301156902100317, -0.603936528066659, -0.5846254503934182, -0.5919900700606247, -0.5755077529876246, -0.6027974833134744, -0.5531491742184892, -0.5869215805381673, -0.5898885295181987, -0.5640017527239233, -0.5801881829770201, -0.6009915010947476, -0.6010544114983061, -0.6290017434222733, -0.6186653861362049, -0.6391937961559951, -0.6561899732057181, -0.6467709491926853, -0.6597340363876779, -0.6979778788563892, -0.7078356543285332, -0.7126929053434505, -0.7490839555946401, -0.7400892951862353, -0.7291098493491819, -0.7405203055500248, -0.7201562083459181, -0.7314634613653825, -0.7209849730316005, -0.7126394217795718, -0.7219728249334113, -0.7243953479217627, -0.7409289825429475, -0.7236904511996761, -0.7457858257161806, -0.7410335899093583, -0.7630360278098819, -0.7565846923153595, -0.7789581421806213, -0.7738834961912358, -0.7704798948711985, -0.8300018202382332, -0.8177779856215193, -0.8288512611566943, -0.824433964089834, -0.8277015335955288, -0.8798604778487196, -0.9028961970614974, -0.9080227689428534, -0.9047632617781138, -0.8987918425524992, -0.8863042543093649, -0.880802673729015, -0.9091196079036843, -0.9223607615473416, -0.9322417611491973, -0.9407906949219982, -0.9286497891470161, -0.9366751493021209, -0.9635115802868729, -0.9848628481296647, -0.951329117749844, -0.9388736491656753, -0.9300978139451889, -0.91690317174145, -0.901718089811111, -0.886007347766819, -0.9222662678790762, -0.946507663278798, -0.9484826431926832, -0.9482181723937625, -0.9509795391775071]",True,0.6000,0.4000,0.5000,0.1000,0.2000,0.0100,2.0000
37,go,Hit,1,0.6700,"[0.0, 0.005298154325123173, -0.03060623498181531, -0.015561396664243195, 0.0049007427847358506, 0.0029598158903628505, 0.05275471903817227, 0.054055666240262, 0.059897595168544725, 0.05256353254691934, 0.06223730721090683, 0.07924052533052553, 0.08453006373477917, 0.11554342148185069, 0.10431172549701057, 0.0900673224613663, 0.07682408367523384, 0.09730032602217574, 0.11697913169123608, 0.11475752814626737, 0.13594160047713674, 0.14514189129473004, 0.1072658782579499, 0.0901223278140301, 0.10327075863234479, 0.10206507948116376, 0.12007862135664782, 0.12262534358124474, 0.15872668454027622, 0.1632590776474462, 0.18986005750185928, 0.20560664723894545, 0.21181761580563024, 0.2301126289918911, 0.22948150211406096, 0.24832153781121458, 0.2799625919282667, 0.296576983122641, 0.2856037923973974, 0.2965088572562323, 0.28422215082316343, 0.30753259370274305, 0.3257260783656916, 0.3427746890068343, 0.3568264881054032, 0.35606762291186955, 0.3862830078364861, 0.38256653504151683, 0.43185327508495913, 0.42964269313033215, 0.4344048179641183, 0.4672234485516212, 0.43286012834362264, 0.45655277965633256, 0.427550142170591, 0.45203817941979807, 0.47200201479216264, 0.5168380424450169]",False,0.6000,0.4000,0.5000,0.1000,0.2000,0.0100,2.0000
38,nogo,Correct Rejection,0,2.0000,"[0.0, -0.02530726809231693, 0.011789208849756778, 0.016771129490793867, 0.011834981696716462, 0.012939681133265823, 0.03674835473742462, 0.04654683685160818, 0.0490978975166265, 0.059567776386066716, 0.05310083989399754, 0.0464698488835761, 0.026663259391811054, 0.025967565193439936, -0.007210165025465405, 0.023626040787460945, -0.0017012190447618508, -0.008446824996694434, -0.02172287463749878, -0.02751950508618498, -0.04400229841093907, -0.05318470565751162, -0.0814590321535517, -0.06870354724569129, -0.06086987920182291, -0.1046827773913857, -0.12412500064433256, -0.0944956060578826, -0.08944458107821768, -0.11104490021160456, -0.13735036839494466, -0.1410518542430945, -0.15027530705372957, -0.15997935405056427, -0.1944016680255162, -0.1919724191080216, -0.18216844186167272, -0.15622439454768824, -0.15092618232929841, -0.1885886535957175, -0.19909247306244332, -0.23861622708864355, -0.23773792574608954, -0.2664852309675586, -0.24831430250756964, -0.24782620545223302, -0.24443987055096533, -0.2392497589374897, -0.25839245633627617, -0.30339637583639156, -0.32341019036770313, -0.3281577053360898, -0.3255070618976073, -0.3469815899282917, -0.34579624953089955, -0.3584095851197622, -0.3887794802402664, -0.40129975728357936, -0.3903545739676353, -0.3692658575204082, -0.34916423993513324, -0.33569860543282315, -0.33575989362673586, -0.32973435343171503, -0.34183601661053986, -0.35284590039024144, -0.360666292148308, -0.33776533304246764, -0.33542616959822696, -0.35882347762304906, -0.36698721254688965, -0.35223009910468783, -0.35673330103338696, -0.3595481941516045, -0.3600996238269078, -0.3614820643015398, -0.3597592430130014, -0.36611559883364103, -0.360392256075403, -0.3570460198123014, -0.353182739787041, -0.37567239222241633, -0.3522749645352111, -0.40091981967872803, -0.39652577614661966, -0.44788993887903916, -0.48058338503126397, -0.4839502978594573, -0.5060723574872681, -0.5017539686216326, -0.5272778426780994, -0.5071153987510674, -0.4964059821977894, -0.5166388394374937, -0.5171745437905405, -0.5552155615616227, -0.5730120415272266, -0.5619977253646224, -0.48449729322363677, -0.4708070529023884, -0.4689604421826547, -0.42564251330131225, -0.445964875541799, -0.43316332751478603, -0.4452716199165078, -0.4546736878461261, -0.47379594122375834, -0.49272750950840455, -0.49595802839678776, -0.5361665930742782, -0.5486457678527257, -0.5558551103410329, -0.5376753165649466, -0.5832967964876336, -0.5812807385690902, -0.6095359743077213, -0.5871173902588241, -0.6089399033880509, -0.5976700823394385, -0.5571244130693522, -0.5540845175146133, -0.5635096381782444, -0.5729660741325144, -0.5830187973352126, -0.5867843932368457, -0.5598563513153578, -0.5645304648293423, -0.5706785243858672, -0.549283982203776, -0.5370610729953562, -0.5294448370029481, -0.5546694074438685, -0.5753473035042509, -0.6034790712575616, -0.5889434075180775, -0.5657325238274208, -0.5502012841951421, -0.5554652537835366, -0.5618456070387722, -0.5447359971374113, -0.5441580142785828, -0.5421259349571977, -0.5221203631072397, -0.5457089370118552, -0.55178244661532, -0.5972106023824667, -0.5744241904831099, -0.5902590390550129, -0.6138099401284883, -0.6280415128216489, -0.6526815771809705, -0.7095471408455714, -0.7358312031772656, -0.7350743329505197, -0.7817322942241334, -0.8126875079263487, -0.8170056218175603, -0.7863672703984785, -0.7779672751837412, -0.7762552659016814, -0.7706826756698835, -0.7803093205823759, -0.7775178090297808, -0.799600345179972, -0.7855829212692903, -0.7780701184035016, -0.7907473267391475, -0.8000859645907479, -0.8202597541855071, -0.808415943912944, -0.7733953858952581, -0.7872483383313609, -0.7979717696760258, -0.789461858737388, -0.7968557008344821, -0.8027269983496104, -0.8081188228745029, -0.777735832358051, -0.7638080642897349, -0.7538404941444861, -0.753754002270668, -0.7672718342425823, -0.7740605791493954, -0.7564876331108433, -0.7635160441406259, -0.7310174563194515, -0.750918236713765, -0.7361230932849466, -0.7091848025838667, -0.7272396918262937, -0.7403870981870146]",True,0.6000,0.4000,0.5000,0.1000,0.2000,0.0100,2.0000
