trial,stimulus,outcome,choice,rt,trace,timeout,w_s,w_n,threshold_a,t,noise_std_dev,dt,max_time
0,go,Hit,1,0.4900,"[0.0, 0.024756946937011415, 0.0033116708327189485, 0.02243297701195097, 0.05879854758292681, 0.08862680238307978, 0.10140169481504512, 0.10436767098298427, 0.12250878553907264, 0.09031552185837638, 0.11963869055578745, 0.15689577432587792, 0.15682399315919596, 0.165706918033431, 0.18042853190545505, 0.1919474184348811, 0.23464325675490527, 0.2514799363016491, 0.2640299490024147, 0.23904636701740128, 0.2706379834605863, 0.27851154381547316, 0.34312300923295164, 0.36647394066641553, 0.3528998494823121, 0.3438992552523664, 0.34890779740223266, 0.36867854520636034, 0.36772018436258586, 0.34911437981357524, 0.347598884817188, 0.37006836525434145, 0.39500344176104024, 0.4356579449873372, 0.4233569244571679, 0.4429535979101208, 0.4484304835077432, 0.45381764175923217, 0.4934563694819778, 0.5045266365291372]",False,0.8000,0.8000,0.5000,0.1000,0.2000,0.0100,2.0000
1,go,Hit,1,0.7000,"[0.0, -0.005308979327067021, -0.021763954596308168, -0.02140967884423977, -0.052519923075043266, -0.08424502116533965, -0.055363067552057034, -0.0491946631826007, -0.010613136213522792, -0.016687081228005187, -0.009306275908900976, -0.002656326122239679, -0.03075356645222909, -0.028121703540960316, 0.029544356103263454, 0.0025329687227313782, -0.010596694720563897, 0.006227782754517963, 0.015128956748414676, 0.0157125977877537, 0.011607965460491892, 0.03402723943454383, 0.062018390366125144, 0.07862975633063433, 0.047309075321243545, 0.05222106852649354, 0.06178637213809511, 0.08595149859364416, 0.09650163889488292, 0.11895264041700784, 0.11841284768196543, 0.11804287223488202, 0.14498014016336866, 0.129423044108883, 0.13412600895449364, 0.13725220267836322, 0.13463923639873016, 0.1556624599331066, 0.189118716579088, 0.19107377890763966, 0.19224990244308227, 0.20269611198132695, 0.21353215797498745, 0.2071918609794908, 0.2175651504025617, 0.2345297352260763, 0.2518904900632017, 0.27825533304137945, 0.30505354140202257, 0.3317941628413005, 0.34795164755520225, 0.3818917601490144, 0.42116755240762493, 0.4329572304901015, 0.4517672763448204, 0.4165809206366253, 0.4456873966351461, 0.4581946307319658, 0.48249418860256876, 0.4892206261572797, 0.5178201871149689]",False,0.8000,0.8000,0.5000,0.1000,0.2000,0.0100,2.0000
2,go,Hit,1,0.6700,"[0.0, -0.006629496316485387, 0.030443572557137442, 0.010605425292288927, -0.0013630200146541455, -0.00225900883483879, 0.03245340635482237, 0.05109436547159937, 0.06378799048613196, 0.03994009392062196, 0.05996535724102456, 0.0647883346574417, 0.08439618507998273, 0.08867544243204967, 0.08394000782211883, 0.10108268678515761, 0.12160885855575204, 0.12156228194181237, 0.11739795497437594, 0.13459375116012473, 0.18480097315796448, 0.18719648778086678, 0.16143673658812935, 0.13439108506376554, 0.15503602373349398, 0.16732077560859526, 0.16813753446016294, 0.1614008018108135, 0.1794546652285907, 0.21645824800003907, 0.2334265176162515, 0.2475062857129738, 0.2498011311031813, 0.2553897722706086, 0.2511301891530445, 0.25680752495309933, 0.2829518708082881, 0.25700801230922043, 0.2734387530803469, 0.27263238575169024, 0.29012162637653305, 0.2884156080285878, 0.3220368099901627, 0.3332723539748641, 0.35288476329499296, 0.38332974302156714, 0.391907765263776, 0.40473250695486923, 0.4254715197588155, 0.4027692398257385, 0.4038500237364681, 0.42901298547042643, 0.43804289574481126, 0.4585355084866187, 0.4783351273650886, 0.4859249864931231, 0.49160953780710426, 0.5022716355745401]",False,0.8000,0.8000,0.5000,0.1000,0.2000,0.0100,2.0000
3,go,Hit,1,0.8500,"[0.0, 0.007679083612979402, 0.041526109520820476, 0.030112121693867372, 0.009274374767092045, 0.018565695038018627, 0.02201074702683475, 0.016546056116157212, -0.009296106109142319, -0.01586389696733305, -0.02067444468743596, -0.05576917270436248, -0.06150533296078076, -0.03158255454979952, -0.02481785466787223, -0.02072406460066193, 0.006092441831491699, 0.017644420857079166, -0.011629235284032848, -0.00639232204479376, 0.006507733931254018, 0.046085866301038336, 0.058139432568440744, 0.06743794147768378, 0.062389709130003496, 0.1020534217536548, 0.11457160563273969, 0.1296096260709601, 0.1457066244524406, 0.1480950411561909, 0.16097823488353608, 0.16909333257777956, 0.18587244423100874, 0.22936362047369369, 0.2355491357957295, 0.19663238946164543, 0.21120250743440916, 0.1999818318177117, 0.1939064853049058, 0.21581983771957666, 0.208093013069888, 0.22243977381984956, 0.2540982843989686, 0.2562847023640396, 0.2415860429143929, 0.22891171237359745, 0.20408579734481425, 0.23609817305189204, 0.27333512943698546, 0.29036305434657905, 0.2946352660092453, 0.27185277495855326, 0.280808850107986, 0.3359287844790101, 0.3664933338350753, 0.380974449250369, 0.3766436208963468, 0.428018178089607, 0.3943325890851977, 0.4278992201066094, 0.44409527177938674, 0.449330504065702, 0.4621619592983166, 0.4672932538785594, 0.4399944595945108, 0.4538450405638504, 0.4304692985215991, 0.4401762266625729, 0.45460620092170684, 0.4410926537130258, 0.4798707106055759, 0.4676066216814548, 0.4772015933656291, 0.4834045134833689, 0.485000085673228, 0.5147001007857352]",False,0.8000,0.8000,0.5000,0.1000,0.2000,0.0100,2.0000
4,go,Hit,1,0.8100,"[0.0, 0.02354187550144674, 0.06922417614984022, 0.03646316547098332, 0.057955284481258695, 0.03919600411295448, 0.04431743818367523, 0.05947136758187463, 0.07287417932936088, 0.09063948909947339, 0.07569535358877089, 0.10821284718928274, 0.09585356862960022, 0.0864942215934554, 0.10139879800109279, 0.09482464555981887, 0.09274415816126877, 0.0884674238350733, 0.1014499614730747, 0.11436429778997222, 0.09505657063080077, 0.11956982831398016, 0.11440534490744639, 0.12614062527329037, 0.1331510679829734, 0.1481248153534893, 0.15996717220722523, 0.1950262532193612, 0.21991000651975334, 0.24491565068837381, 0.2249483314216238, 0.2190140868467767, 0.2407155159966462, 0.25646134746063226, 0.2613052924979284, 0.27427344332066955, 0.2605798605940851, 0.23506057853570708, 0.2623047378247034, 0.27729192683500664, 0.3243891261884285, 0.33839047375625336, 0.31314016235423225, 0.3316867245676146, 0.34296528838725837, 0.3574957113221195, 0.3444187436850153, 0.3499275175905888, 0.34358806390353147, 0.32992874312744874, 0.2917025238352386, 0.29087273425819404, 0.2948123337308147, 0.29330935524699453, 0.3205343390741917, 0.3297009791718911, 0.34536127626672947, 0.36021106573534967, 0.3705364739760168, 0.4052585460381728, 0.41551834197377957, 0.40867630991874904, 0.4145592523359791, 0.4317828145238779, 0.45237774190401436, 0.4892732172904022, 0.4641678290652842, 0.4504868600615872, 0.47814721539578725, 0.45129856991788586, 0.4759130786402466, 0.5083800253944113]",False,0.8000,0.8000,0.5000,0.1000,0.2000,0.0100,2.0000
5,go,Hit,1,0.7000,"[0.0, -0.0032660975162419528, 0.020665485686455015, 0.0362302713435985, 0.05530782765743333, 0.004346417122663093, -0.007025952147897151, 0.007648820470679654, 0.008281763178612653, 0.004192460315189689, 0.04400597735310734, 0.059501417174916915, 0.09619518095930867, 0.11205747833829831, 0.10599243415030939, 0.12853181828983756, 0.1554654328209069, 0.14616784679162503, 0.18191327730155227, 0.2244770432083129, 0.23938971671767528, 0.25937545511749566, 0.2597263035889247, 0.26405595049486813, 0.3003881465105718, 0.30091317770989595, 0.28930681435057354, 0.286236158707037, 0.3109478893147899, 0.29068120263727515, 0.2838141790679628, 0.28329147146918926, 0.296438923661001, 0.28400347160707684, 0.27611651460892217, 0.30205155053852484, 0.3015929282352136, 0.31353531918630134, 0.344506429603313, 0.33418634431026906, 0.33049297128696475, 0.3591075972094261, 0.3833656627968455, 0.41221935561068784, 0.433325474624463, 0.4388380768157746, 0.4310516041146357, 0.43221488038338735, 0.42102699304188035, 0.42459220587065744, 0.43385626787549036, 0.4494057206559602, 0.47014545340338243, 0.48260754646492265, 0.45704553570527495, 0.472742128640195, 0.4833273111331054, 0.4874490017877377, 0.48678408038410736, 0.4720270809443069, 0.5005329120810842]",False,0.8000,0.8000,0.5000,0.1000,0.2000,0.0100,2.0000
6,go,Hit,1,0.7300,"[0.0, 0.005160910941482164, 0.005462318730584094, 0.0215651596195564, 0.02463562224881887, 0.049403954401437127, 0.05918398160824125, 0.048104703885010466, 0.04952610025390295, 0.07248099833147117, 0.08847696731054595, 0.12246544795287982, 0.14103934451359712, 0.18389620487501473, 0.161906056762278, 0.15341406581899175, 0.18670745998945285, 0.21506840750740122, 0.22050908614089124, 0.2583727544546797, 0.2812178188709915, 0.2408626454482948, 0.2282713213159353, 0.2311923129768506, 0.21386123107503674, 0.23328866563249667, 0.216158432012321, 0.2346922409680179, 0.23479317033527475, 0.25598521805451857, 0.25354334200038847, 0.24597065156141687, 0.23906686989824255, 0.2425102456185693, 0.23894961637249906, 0.19837275370838436, 0.21579855787537225, 0.22645325443081754, 0.20394496395683143, 0.20138354250139506, 0.18273279853969046, 0.17815868661201795, 0.21564718348304523, 0.23299347563337316, 0.2368476920615862, 0.2739267035653199, 0.2693001782733439, 0.2848835326952175, 0.27011005525629095, 0.30907941008707834, 0.3116733869472155, 0.3265488649314665, 0.38234160071834744, 0.4158135084973415, 0.4118001269007075, 0.4308781438142726, 0.48461175868494616, 0.48983397069383494, 0.4892086577395954, 0.47598160708295856, 0.4541338157562597, 0.45254759576931153, 0.45726213353621437, 0.503038525680477]",False,0.8000,0.8000,0.5000,0.1000,0.2000,0.0100,2.0000
7,go,Hit,1,0.5200,"[0.0, 0.02415769320617675, 0.031216729563468222, 0.024093169830340152, 0.03504257013868583, 0.0560609608445881, 0.05820210046900012, 0.07395588526722072, 0.10135569503399924, 0.0881315511943337, 0.11364102688346556, 0.14417272740084305, 0.17083930523399113, 0.18316131786339254, 0.16557329232253384, 0.17478815779933327, 0.17223465986289477, 0.14611495655974777, 0.1878623308892493, 0.22010352622257967, 0.24601364574726453, 0.24739920823479658, 0.26416616862861547, 0.27613222190148673, 0.282641693762358, 0.2626246028806172, 0.2648086736766592, 0.26709761646255137, 0.2823332427647334, 0.28440289147148695, 0.28253923508454387, 0.30189278140402565, 0.3179449835073643, 0.3599374860108387, 0.3537933909455533, 0.3489019602366475, 0.34742645234769515, 0.38660362224193745, 0.427295950623922, 0.44948016127614326, 0.44290532968078955, 0.4516008375930758, 0.5084664791394109]",False,0.8000,0.8000,0.5000,0.1000,0.2000,0.0100,2.0000
8,go,Hit,1,0.8300,"[0.0, 0.0077504851968458605, 0.04717112226073723, 0.024663664184786452, 0.034373090293012325, 0.033210423496243244, 0.06775487947322416, 0.07621145132082276, 0.05065362657484641, 0.05151790617456651, 0.08069584514397829, 0.07977213353600306, 0.08221449312475528, 0.08417168486419183, 0.07147463011575436, 0.08185933057194188, 0.10881953058567234, 0.11629737577906588, 0.1589704787315694, 0.17504439025750923, 0.19086351397293963, 0.16008759855647145, 0.18626817929261458, 0.1977158663638651, 0.20925889973500864, 0.21717764362172964, 0.2562218286103155, 0.2680451868286255, 0.26227008965092147, 0.23615918404506364, 0.22435671401268842, 0.2618709814542472, 0.2583125184085559, 0.24529892459494884, 0.20816618407246476, 0.2276872524586317, 0.19015266370833597, 0.1993542315338707, 0.2245935532208295, 0.2246555675409971, 0.2217022711868361, 0.2367040873423991, 0.2137003088621464, 0.22203361134523358, 0.23660380992891633, 0.26539649189651326, 0.27231568707486886, 0.26971549919290727, 0.25277099542945813, 0.25223101320948743, 0.24349924674220508, 0.286128527230668, 0.2624432629541948, 0.29392817399626514, 0.30991369576063665, 0.28224957085741975, 0.2633974037543695, 0.2772125938020725, 0.2868199199483847, 0.2919748018074966, 0.3118524379522627, 0.3736361115299923, 0.3876601739322507, 0.4048296479879134, 0.44267297749824486, 0.4401838122376455, 0.4753251522062715, 0.47690875622236983, 0.4804804671583146, 0.4695469245700453, 0.46376497452997384, 0.47385343590005113, 0.47942638836253604, 0.5149540520475282]",False,0.8000,0.8000,0.5000,0.1000,0.2000,0.0100,2.0000
9,go,Hit,1,0.8200,"[0.0, -0.01519786173705507, -0.02688916982037902, -0.0161838301112079, -0.013388781409681387, -0.055772019272988714, -0.04012406067013914, -0.06095297485689232, -0.07644646026145488, -0.0605716412047986, -0.03696144117368241, -0.015948448944229726, -0.02965876441517863, -0.03931699151324415, -0.0364884042055968, -0.02019993547818181, -0.01734626140617561, 0.0004801310201746102, -0.0003113781024422571, 0.01614605640111904, 0.04090981940310849, 0.03893385333697871, 0.060467662437489744, 0.06466660764255806, 0.05735696455587502, 0.038599833024216476, 0.03522551262344471, 0.03133760320671714, 0.07154838719192527, 0.0630790483578581, 0.08859550680664621, 0.12355499504750132, 0.12148529456400978, 0.11224300252748044, 0.13814765910118793, 0.16098705258968865, 0.16862276309769003, 0.16601371204911156, 0.17821019550798445, 0.1905046913262903, 0.18663819686550318, 0.17265597548075187, 0.172915944321399, 0.1769632129173725, 0.14429950195855373, 0.12495871861343881, 0.10694045501951938, 0.13646206921039292, 0.13867015451908885, 0.17023231316261378, 0.21003404847848112, 0.25418299359433605, 0.27838467419976337, 0.3124116876451415, 0.31100449326564894, 0.3161340416392759, 0.3408285836072154, 0.36242418915280683, 0.37684904405666614, 0.3739074104505443, 0.40390921842824257, 0.42938402973170275, 0.432632664105738, 0.47514348448566635, 0.4619244995003248, 0.46481964432640716, 0.4702052282617063, 0.46203717584288917, 0.48010384862754346, 0.4868932668775243, 0.4865384018308052, 0.48585200421359137, 0.5069590956456069]",False,0.8000,0.8000,0.5000,0.1000,0.2000,0.0100,2.0000
10,nogo,Correct Rejection,0,2.0000,"[0.0, -0.021951492092347036, -0.04887009212815527, -0.06834484868596605, -0.11371899126646476, -0.11735074715982055, -0.09539347458405731, -0.13590720129198913, -0.11682593004579207, -0.12908003091036935, -0.12440333086597377, -0.12608531446689158, -0.11404531926518309, -0.15606419950702693, -0.15215073103446128, -0.16631007696046465, -0.17034401526622622, -0.1582515063329679, -0.1519457950161196, -0.14127034630336024, -0.14142109650588286, -0.14235346744679764, -0.17002339998563482, -0.18057115160741014, -0.1712441250978926, -0.1936258985902511, -0.20751082655049832, -0.2427487454981154, -0.23945469565151406, -0.23815897106497852, -0.26088760693859825, -0.27914873414866775, -0.2791538165161338, -0.26936679183536966, -0.27295277389954475, -0.30530065541909884, -0.2905838800395815, -0.2972087955050324, -0.2978489182858093, -0.28748913386930125, -0.30381538109399, -0.30659995144299734, -0.3044247913942829, -0.3317469444597858, -0.34770964431407825, -0.4003653741283318, -0.38657585032951036, -0.43549707574484897, -0.4424330514100088, -0.43308391734628093, -0.46899588247457275, -0.45857188284050787, -0.4368270754436962, -0.4274290167590032, -0.41136536781771155, -0.4186602968052394, -0.43039889858988045, -0.43105476392871594, -0.4321834191007251, -0.44098792915215207, -0.43897278609828605, -0.4528997660057643, -0.4476051782739955, -0.463530857881433, -0.4795343708888213, -0.4801204978234233, -0.4836674662800192, -0.497966018832205, -0.5343307318812205, -0.5243906117909999, -0.5285157150582142, -0.5318041741383378, -0.5189886178683517, -0.5229002108977531, -0.5043350685857222, -0.4906820868803451, -0.4933771961450639, -0.4979496172348964, -0.48008757527524526, -0.5053905152210327, -0.5496785692114625, -0.5807108983149958, -0.5768706205918921, -0.6149658162266377, -0.6155988978505479, -0.6209959461214304, -0.6444871218528003, -0.6965480607275502, -0.7150367495559453, -0.7255222914203333, -0.7248415481132232, -0.7086871764287684, -0.7002144512184171, -0.6937011087923431, -0.7099477590749635, -0.7202350942508703, -0.7051368775707453, -0.7184729619008636, -0.7535706681468137, -0.7592686929310946, -0.7831628983892117, -0.7904282439484456, -0.8282462020694749, -0.8690989464999411, -0.8826796843885736, -0.9045520343528842, -0.9153963042621946, -0.9225946508900715, -0.934898049829182, -0.9288926536668337, -0.9376576140291555, -0.9387127835147336, -0.9435359381711436, -0.9540846241037492, -0.9412821977068982, -0.9178068221161145, -0.8955276889261098, -0.8997410196591918, -0.9260292962261247, -0.9096492652257361, -0.912599603636161, -0.8830771126601323, -0.903284323624655, -0.864093813320626, -0.8620571972093892, -0.8748629329923459, -0.8833491482314343, -0.8838699430558054, -0.8975307860629397, -0.9151494680011293, -0.920044312338337, -0.8968803325610711, -0.9142807370001075, -0.9307146240233085, -0.9196244519690467, -0.9139604276371932, -0.9604797027484, -0.957462852617127, -0.9769468121176504, -0.9978678034828757, -0.9989526759229064, -0.9848998921023606, -0.9971013875206526, -0.9667481902994189, -0.9351976916447352, -0.9035559117272725, -0.8708046226110469, -0.8923201050341716, -0.9026230505839404, -0.9127556807163419, -0.9225968486527623, -0.9107888880354615, -0.9153756157955913, -0.905567317082154, -0.9140719472025853, -0.9593260266972804, -1.0027357843400262, -1.0630938263666876, -1.0926033962636001, -1.132836900130816, -1.1213915247730664, -1.136806621869932, -1.1629736401697293, -1.1445171694771614, -1.106748904513246, -1.118224984856797, -1.122554679860931, -1.1366733786952414, -1.1329961818802772, -1.1559662080093143, -1.1564216748155907, -1.186343693635412, -1.2124232390770084, -1.194349839055428, -1.2116209602637629, -1.2445961118594797, -1.2395058731774784, -1.2485897634454535, -1.283671652443196, -1.2624002838500363, -1.257874941811412, -1.263340666951377, -1.2833598075185204, -1.2663784691522952, -1.2536914450460024, -1.2765877133282453, -1.2731591296727425, -1.2529114004090633, -1.2608185384860284, -1.2816729508727762, -1.2777617540600685]",True,0.8000,0.8000,0.5000,0.1000,0.2000,0.0100,2.0000
11,go,Hit,1,0.6500,"[0.0, 0.005881083624474071, -0.020481771562320547, 0.0028692754006660014, 0.005744899270909763, 0.004013535267707119, 0.0009059032202010757, 0.0029560912546360354, 0.010929015236636698, 0.049049755565006035, 0.0662036753677592, 0.07093812825861008, 0.1052223804668557, 0.17625630354546531, 0.2056566128747817, 0.19958971380903845, 0.171679433101215, 0.1774823085533532, 0.21875005348908022, 0.20687909103900656, 0.22554922335457753, 0.2339841107277323, 0.2562661139213292, 0.271047214896777, 0.2506746588220293, 0.2727522375982359, 0.28067449310627085, 0.28110137252027195, 0.2782784052085153, 0.2910395344103122, 0.3018638050400123, 0.31097372581823113, 0.32397571078927934, 0.3360193924583402, 0.3082120434077301, 0.32743695579821136, 0.31636411659748576, 0.3105771715913862, 0.28423441559196116, 0.3079592220374726, 0.3179039926706163, 0.31340407524476543, 0.29461046934804397, 0.3003284394998587, 0.31781123603933714, 0.3384499666567893, 0.34666872990675984, 0.3861246311879041, 0.40099045692361657, 0.414645746080533, 0.43320151416771424, 0.4377596793486911, 0.4447673178730824, 0.4440765492769951, 0.4925008999786239, 0.5146852271902576]",False,0.8000,0.8000,0.5000,0.1000,0.2000,0.0100,2.0000
12,go,Hit,1,0.8300,"[0.0, -0.021507976509735165, -0.02123318391554309, -0.038196892926254646, -0.01222433799865964, -0.006582987808084852, -0.028008796242782324, -0.018164249355335685, -0.007738335964557339, 0.0319366693518027, 0.024046395529864442, 0.06206735533883979, 0.05906459209280422, 0.0849599360102728, 0.11180659099425079, 0.11719597092511422, 0.1357343317507013, 0.1438988550535794, 0.15003895870742945, 0.14738093714228234, 0.1124331925259678, 0.12164350178021284, 0.125433989708976, 0.13184786607135546, 0.1660969965612813, 0.19371184161974578, 0.20042600778767844, 0.2210451855658309, 0.2241032076577946, 0.22396826780153817, 0.21816363998582944, 0.24078672871373752, 0.20569878572721267, 0.20250805497841942, 0.22464933608035104, 0.21094371765652073, 0.23715537894595828, 0.2337756562385371, 0.2568034197356089, 0.28193949048455635, 0.2947929354895485, 0.27688039409052584, 0.31224297912739835, 0.33350626555189977, 0.3338212013280739, 0.32470900063578234, 0.36225558309395767, 0.36420913416407047, 0.3221479346135858, 0.32434087923948773, 0.32749713450551243, 0.3170360538266805, 0.33240015228520453, 0.345930188357647, 0.35029343380446937, 0.36431430594591785, 0.3614779650835504, 0.349201564939341, 0.3584076652952579, 0.3764280482826632, 0.32496314017870886, 0.3385683935763307, 0.33234768616216503, 0.3213800548730538, 0.34202914510594956, 0.3639963405503366, 0.38481655388210495, 0.4098618212888708, 0.4401315928777423, 0.46908455446228436, 0.4499392836813608, 0.4933740151823478, 0.4860720830618997, 0.5035218305499995]",False,0.8000,0.8000,0.5000,0.1000,0.2000,0.0100,2.0000
13,nogo,Correct Rejection,0,2.0000,"[0.0, 0.002044761989468454, 0.008546586265447248, 0.022635040008910083, 0.0195692276162861, 0.011041535169875936, 0.01638185244039863, 0.0034695185867122755, -0.032727977610860326, -0.08467169686428823, -0.10867934079324394, -0.10987018547394689, -0.13545866415533253, -0.13003277901257318, -0.12343185130768104, -0.12909934287406563, -0.11270812821506615, -0.10764283699353679, -0.13028490262250245, -0.15742354959719349, -0.16342755879641976, -0.1888663152054018, -0.20940123089914742, -0.20132627749334242, -0.17859406189543972, -0.20896672794753424, -0.19976961097680696, -0.19866191285817417, -0.196522519249894, -0.20282899697979426, -0.23361950450815147, -0.24318462884607686, -0.2610839422273725, -0.2744261243186566, -0.2616610676187126, -0.2631136320262997, -0.2923354387177249, -0.3022401692343264, -0.3119936477112283, -0.3094975823314568, -0.32178934510817025, -0.32169277829628945, -0.34488202052440065, -0.37675228552777323, -0.3585028682139609, -0.372063783236912, -0.361950588622847, -0.36782943528892637, -0.3722664462126393, -0.3645007727098153, -0.39702665332704645, -0.41533074683873433, -0.41068595736479974, -0.3941230065691607, -0.4326885144272345, -0.46056699718037875, -0.47955052112557706, -0.4990284606830247, -0.5108935723769866, -0.5123982816703041, -0.5223643738300803, -0.5399729373059727, -0.5352802124075436, -0.5473668126728437, -0.5481292024517864, -0.562293094594743, -0.5692666243999451, -0.5725284956170218, -0.6016237462644515, -0.6336685848395127, -0.6460396354008221, -0.6458870476236763, -0.6382275724753129, -0.6396602632243109, -0.623316123828467, -0.6228387319245681, -0.6239956753979705, -0.6453741449628588, -0.6460479529495221, -0.6269291547199066, -0.628468314412525, -0.6229788273374155, -0.6125086258624942, -0.6194407858799285, -0.6262893785331262, -0.6445468054300861, -0.66345797456642, -0.6798412515595393, -0.6701116612733362, -0.654478742775545, -0.6788088965582191, -0.6929821748015068, -0.6821863969528311, -0.7098114377853958, -0.7483025128185624, -0.7592594616082108, -0.7681777107815947, -0.7644725020583563, -0.751323034421437, -0.7346491778877612, -0.7189568017056853, -0.7533829531064863, -0.7829205950344444, -0.7848157241791105, -0.7917167443880717, -0.7757627399552334, -0.780115618582249, -0.7864967976772205, -0.7894694737533067, -0.8262121452638397, -0.8396559291912014, -0.8109234988806792, -0.7763576345256552, -0.7572065437217166, -0.7180902698498643, -0.7309662810710204, -0.7258082167152985, -0.7162651474505036, -0.7106463714397342, -0.7147223472751749, -0.7031574518034092, -0.7181474126711547, -0.749251644957103, -0.7798953368274381, -0.8021520927526674, -0.8651703585768575, -0.8556988012737147, -0.860938917552034, -0.8478518808039609, -0.8719519575569151, -0.8575714682059167, -0.86419404270499, -0.8506079801350094, -0.8395221746883632, -0.8263261769807364, -0.8010094940971444, -0.81196158982519, -0.8444944509281842, -0.8433402745746957, -0.8411204381160419, -0.8384887492844003, -0.841130400805108, -0.8540727905001494, -0.8624084128320586, -0.8826389860903987, -0.8723245626981088, -0.8701976602883175, -0.8762240313774498, -0.8747756317410708, -0.8857107498483608, -0.8650797439151661, -0.863134443703311, -0.8551828585542226, -0.9167227266253875, -0.9226805508010295, -0.9267035009236986, -0.9481039513105639, -0.9483018074746852, -0.9367330002054213, -0.9638467679266589, -0.9773293329826344, -0.9994220980276867, -1.0127461946194523, -1.0074148989530638, -0.9818723076912191, -0.9723074629690207, -1.0077619894390384, -0.9956223069883655, -0.9836205239386369, -0.9378380432890099, -0.9376242901604691, -0.9387637031724162, -0.9518782954840961, -0.9668916277373693, -0.9723254097682262, -0.9874115464426186, -0.9568370019473396, -0.9353676833679032, -0.9600767036265365, -0.9699537554246579, -0.9787977735481632, -0.9878519676027544, -1.0143097599662838, -1.0360269606364336, -1.04568001023891, -1.031782980978346, -1.0275396309705533, -1.0332002441552197, -1.053787609851788, -1.0966135985395542, -1.1191516718925034]",True,0.8000,0.8000,0.5000,0.1000,0.2000,0.0100,2.0000
14,go,Hit,1,0.8700,"[0.0, 0.05374605690889699, 0.06448077681173828, 0.06553563721795139, 0.04061824825366689, 0.059399085513644645, 0.06593877751757689, 0.06086894137289284, 0.07206867010578326, 0.06254145726904878, 0.02044369309342753, 0.029571448920975525, -0.00761528258047095, -0.00016456873099048638, 0.00695575132111662, 0.010109232659777126, 0.0285991289794833, 0.025550177131910948, 0.044307862415450136, 0.06144127530788973, 0.09220377827588627, 0.1189949702661589, 0.11172920267237846, 0.11719068843731874, 0.1270905371261381, 0.17047034168452463, 0.16323555192046355, 0.17846230689310447, 0.18990782671328932, 0.17150437750480912, 0.1670218870766435, 0.16927888943695213, 0.19112232027742665, 0.196232175127182, 0.18852325149779525, 0.2083038295600299, 0.18840630717685342, 0.22117513548183854, 0.2310761700145502, 0.2086484150313372, 0.24062171931041057, 0.23809871856993398, 0.21165133204181807, 0.21694081660664113, 0.2612087765845299, 0.2617460269659705, 0.30552128791854555, 0.3398947761510777, 0.323163585200762, 0.3777200652136224, 0.3832565360630358, 0.38221396554880666, 0.36384063381580123, 0.3736879114669469, 0.32395520038450065, 0.3451738288655494, 0.3404932722929696, 0.3461650964129071, 0.35490809154683745, 0.3492296953597914, 0.3245498945759928, 0.37227979774910924, 0.37299855338535837, 0.4084287194161929, 0.43508300078731765, 0.4243791698495979, 0.4020831430856893, 0.4227074354521792, 0.44321382087554295, 0.4376212668586756, 0.46067938967212785, 0.4553209495312885, 0.4609530334968103, 0.48184792359398937, 0.4754991802553347, 0.4742175966713186, 0.4977671950952924, 0.5062159699657675]",False,0.8000,0.8000,0.5000,0.1000,0.2000,0.0100,2.0000
15,nogo,Correct Rejection,0,2.0000,"[0.0, 0.007789186092141636, -0.0017144315780406073, -0.008387776702641214, 0.00579455006938524, -0.00834341938050039, -0.04082684832472512, -0.0500182280530737, -0.022377354651241382, -0.04245928324317492, -0.04337295227992074, -0.06321779580588419, -0.06677948715952875, -0.07148458270813209, -0.06592061199771143, -0.09206693583929107, -0.12627219546281954, -0.107384524555213, -0.11208547813926846, -0.13168380817260272, -0.1316309583307672, -0.13703612454889566, -0.15259055843124675, -0.11329912542621198, -0.11595543413288717, -0.12952225697677053, -0.13110709865969794, -0.12595874820107275, -0.10096884955738036, -0.12843839824315423, -0.06548511311247146, -0.05955653254532914, -0.05428537672325584, -0.0438776733653693, -0.08515991059549, -0.069700325927686, -0.061338147579694656, -0.05745947103690327, -0.04883819318347514, -0.056527358976937024, -0.038661231980106466, -0.08661842684755172, -0.11574168046352706, -0.08592174627255636, -0.09555692517766279, -0.13611525101275018, -0.15058683198528175, -0.15350359180841103, -0.15966060574338373, -0.17577654044118451, -0.18995943478133387, -0.17853946885312408, -0.20263684327426407, -0.19987320788525573, -0.19395571555650873, -0.2238638799330264, -0.22155853314988544, -0.22891795903577347, -0.24596953416730663, -0.24151405416433905, -0.25986467929818063, -0.30366989259592886, -0.31759503795725297, -0.34048542058429254, -0.3406277549229225, -0.35685601362236985, -0.3583748078887516, -0.40616164346554, -0.43775356473995336, -0.4468455376486134, -0.459515654572668, -0.439865858086392, -0.4731391302037618, -0.4985203516964983, -0.4895336961643175, -0.4544207895031852, -0.4761837918360617, -0.4547669563713686, -0.4766481259925666, -0.5025424356435938, -0.5080596469343838, -0.5509461470470286, -0.5689289964664751, -0.5654000300713198, -0.5692359715658327, -0.5552114859364851, -0.5438557789687617, -0.5565504164633743, -0.5556431845201701, -0.5636332456417887, -0.5508103607428705, -0.5384257594017565, -0.5739539099027837, -0.5587101298192129, -0.5676984386796043, -0.530018786245724, -0.5583692185290936, -0.577017443740142, -0.5974505456776138, -0.6266005398760741, -0.6515968019627626, -0.6649631400314454, -0.6598082043056794, -0.6865062383459085, -0.654327541425421, -0.6917285370085546, -0.6831524409885671, -0.7143428112031837, -0.7151866890535228, -0.7271373055113665, -0.708791407184271, -0.7152707981683797, -0.7099798315904869, -0.6976485840499649, -0.6675215203393252, -0.6683923822110699, -0.6778357102412975, -0.6577654194763383, -0.6677554186257801, -0.6951256888099774, -0.7287859900234583, -0.7393299268311607, -0.7686671820644103, -0.7453721161898403, -0.7294542170217226, -0.7272689817043035, -0.7193251653603109, -0.7037635901114705, -0.7527738963316208, -0.7305117662228379, -0.7516377288119216, -0.736915454005742, -0.7281477011333543, -0.7244851569411591, -0.6949072057115554, -0.7066990422302637, -0.737693000951177, -0.7453303047241541, -0.7367500791425405, -0.7223304625942, -0.7252770876629985, -0.7656653857896656, -0.8180054830673774, -0.8231352620452215, -0.8383828403694821, -0.8360552450680775, -0.8513172323320403, -0.8700531712074173, -0.9058419807621794, -0.9359778695437295, -0.9458824682131269, -0.9669805206427384, -0.9574880741267967, -0.9674040485081666, -0.9329956047478493, -0.950661033901431, -0.9101081084007031, -0.9244256356948025, -0.9531798284935903, -0.9331210893419033, -0.9003210164549066, -0.9057427233058808, -0.9378586599892145, -0.979931882140883, -0.988804484891657, -0.9969948684978921, -0.9875999214262017, -1.0330791395473644, -1.0408510345697364, -1.0515277048306628, -1.0948630689172065, -1.0912554109695107, -1.1049721977816478, -1.126396937904912, -1.1317453644048632, -1.1405992589049117, -1.165949102835289, -1.1404776074480631, -1.1358847946325001, -1.139905405572087, -1.1463219074881912, -1.1362042294388888, -1.1516488654511672, -1.1117530685675532, -1.1339462899653814, -1.1317849059310352, -1.1374835387082431, -1.1680788483471445, -1.1997097694914898, -1.2068069718987433, -1.208695411413811]",True,0.8000,0.8000,0.5000,0.1000,0.2000,0.0100,2.0000
16,go,Hit,1,0.9800,"[0.0, -0.010295315238069772, -0.028362173172166334, -0.010602414668432338, -0.03290357711714477, -0.03900638542771865, -0.035271103232526226, -0.0290736374460413, -0.019349609266047264, -0.012063773314568711, -0.021626740364592847, -0.012379953189287215, 0.0013941112175119078, -0.00184285090613724, -0.013011507574151862, -0.007678886460590168, -0.006175570578058665, -0.014269796728162885, -0.0243049687764333, -0.014644310240475944, -0.015235313224309432, -0.0058000316302026945, -0.010706803010104073, 0.02426971929747973, 0.04647241407595059, 0.03625516808401675, 0.04546060531468127, 0.050904175074741626, 0.029275636748670363, 0.005916018167170675, -0.040529009754201636, -0.03114446126143222, -0.04144268317427349, -0.03004228542151504, 0.010125410895936784, 0.033226604160799644, 0.022522502732977814, 0.04314914140607743, 0.08353740766030171, 0.10093909330177805, 0.08828843592738672, 0.12910829463144116, 0.09392383489416295, 0.1004322037388411, 0.10039656292907422, 0.1323158405685275, 0.1628210014010444, 0.15190898348396648, 0.16880253076261043, 0.15699582049451238, 0.13948402202360122, 0.11959486326278124, 0.14449161189270215, 0.14233165829685626, 0.14358320508426092, 0.14738885151645997, 0.17710936669190613, 0.17604074978127135, 0.18947251779815794, 0.21677676771883064, 0.22748648661407597, 0.2028375910255617, 0.21881621567518963, 0.19492430701301144, 0.20265400294098643, 0.21184253157058022, 0.23212716440241168, 0.23114706016108022, 0.23425925480020082, 0.24344460710704846, 0.260045207958531, 0.26422686073990626, 0.25125809377150266, 0.25106705808776175, 0.24160072953139028, 0.26678039154268046, 0.2776979275200302, 0.2939998957615805, 0.3236745190981289, 0.33617893227182416, 0.3269825165351816, 0.35500986396279643, 0.3519294041626907, 0.3676307063095547, 0.3856141156946764, 0.40024384491803283, 0.4207087212787591, 0.4545911294250872, 0.5040763773183619]",False,0.8000,0.8000,0.5000,0.1000,0.2000,0.0100,2.0000
17,nogo,Correct Rejection,0,2.0000,"[0.0, 0.0076722034560185205, -0.02747966908188994, -0.018995589109399455, -0.02036909446652838, -0.021246819928650795, 0.0019157146629144514, 0.014962435786806798, 0.033907107131818326, 0.024304844549346758, 0.014809072351728047, 0.006680148186150613, 0.022164788713559633, 0.02790586656673647, -0.014428773769825834, -0.03229306411248967, -0.03789309722022434, -0.039861977528287185, -0.04813136454026269, -0.0626644421724769, -0.05243588483237323, -0.0793275306336004, -0.0777240178447344, -0.05723352636784032, -0.07419290203740495, -0.06418029477259055, -0.06382221058780023, -0.08086025672722208, -0.1002000073338043, -0.13763172724419664, -0.1270017278772766, -0.1533169733360636, -0.13552982124592497, -0.1380365125675609, -0.12263897631488467, -0.09363905506657327, -0.11138605634350786, -0.13421836767818546, -0.16777354923537735, -0.17564373096254643, -0.18903396260990143, -0.17312086798117257, -0.16607953437586145, -0.15249326651957565, -0.13274264933783017, -0.13837845032456442, -0.1291254681709236, -0.13213885391823707, -0.10652128603787869, -0.1417201304322562, -0.16264658648999186, -0.13457612288488985, -0.14771073865693266, -0.15449575056014614, -0.17835286605008, -0.20081516776862285, -0.21457505341807204, -0.23586335841324552, -0.2270809970358841, -0.22718025324371904, -0.2487684867269497, -0.19865727207741335, -0.18217501006814413, -0.15260744874288304, -0.12764463586504543, -0.14762800123283812, -0.13733659834740272, -0.1755590773549893, -0.2144432519323464, -0.2222015549943162, -0.24930256153701275, -0.2690212828227601, -0.29739714032905296, -0.29046977525783063, -0.28443693923669583, -0.2951465119104001, -0.28839783612426667, -0.3097634202137917, -0.3369409793258681, -0.34862811374417646, -0.421993923910689, -0.406442108131337, -0.38879766923081155, -0.41538754453665916, -0.43772304909253557, -0.44390958872686964, -0.4482232336150428, -0.4253851045404704, -0.4838592792329842, -0.4771496370635633, -0.46213086010128723, -0.4565903527601683, -0.46484330144225916, -0.43219965017164974, -0.4822680422447129, -0.49793158803328674, -0.5029759122741458, -0.5024857592358817, -0.4887702757732635, -0.44628386136914544, -0.46476614126135923, -0.4716318925365929, -0.5096164446227875, -0.5028902529027435, -0.5326216669817236, -0.5422699824119642, -0.5422898348036987, -0.51881183115119, -0.5516863956868564, -0.5659877779089177, -0.584758752754146, -0.6236887627007025, -0.6610592956191885, -0.6563509520941377, -0.6853456412157639, -0.6746903736727217, -0.6844248142766959, -0.6712698275687657, -0.7060460132033374, -0.6919966905899659, -0.6766797369800703, -0.686761063353798, -0.7000485550223905, -0.7028607505467735, -0.692294643983231, -0.6982665832074746, -0.6742659514926672, -0.6773462493638742, -0.6947086626226776, -0.7147310391153401, -0.7327579540853794, -0.7664591241235016, -0.7689288607461909, -0.8013468519637726, -0.8108283372997241, -0.821990625931063, -0.8410852258462339, -0.8191019724148227, -0.8316241967100475, -0.8529601639150292, -0.8514912550511322, -0.8611971018099747, -0.8900166134313237, -0.89114347641302, -0.8851282474936668, -0.9246110974446036, -0.9417335409835198, -0.9109042379915182, -0.9286186381380738, -0.9635134965551099, -0.9636735289647383, -0.95749504800311, -0.9637152419820976, -0.9823510507587238, -0.9824440003074689, -0.9709984479575097, -1.0036295586436113, -1.0323261103610542, -1.0278302228729177, -1.056083304978079, -1.0161626269325352, -1.0247683674475405, -1.0146836478654437, -1.0615187546761902, -1.0581402896737624, -1.0891601904802164, -1.0643340691017424, -1.067421325468165, -1.059894995603177, -1.041204090190829, -1.0634460318602434, -1.069867477120782, -1.0572966546896134, -1.079305033989776, -1.076475008954393, -1.1141305086598512, -1.0975773147359602, -1.0935890411699967, -1.1018094982093507, -1.1074449790377372, -1.109364644798903, -1.1303561361215628, -1.1478983490686212, -1.1478204252047652, -1.1762962685694633, -1.156638296362623, -1.1568285381497228, -1.1526863337727464, -1.1315462619565797, -1.1420617450825166, -1.090610619498868]",True,0.8000,0.8000,0.5000,0.1000,0.2000,0.0100,2.0000
18,go,Hit,1,0.6600,"[0.0, 0.02848658618227282, 0.031244806168225094, 0.04201744691774468, 0.044314335415584286, 0.04608327559647025, 0.04849954241319829, 0.04679606978690829, 0.06702805807307764, 0.08964248223369409, 0.08665313060950267, 0.1290998665441881, 0.1484293890374417, 0.19574085287149656, 0.20209390050290135, 0.19465804102506143, 0.20407818322136864, 0.1938730752251977, 0.18527036789388088, 0.192377122100194, 0.1982184323565183, 0.21098826482117747, 0.1911986863874861, 0.1882677079662834, 0.19265524577480678, 0.17482251111747207, 0.19410286007587751, 0.2338412270616992, 0.21285250640432757, 0.2208124300248144, 0.1999585800506613, 0.20402571063750247, 0.21945543919716717, 0.24583554031855875, 0.24981307419006446, 0.23323754467696228, 0.2576316811758445, 0.2610192992347505, 0.3105789827976614, 0.3234361782393081, 0.3299837025742555, 0.3453531923752634, 0.3220740350351282, 0.33420008301833665, 0.3745039675436692, 0.37223711283671523, 0.3764158400919111, 0.40022153562300206, 0.42777568271346483, 0.4403028984806485, 0.42818994196096777, 0.4194944903119556, 0.44298710965107607, 0.4551055145097495, 0.47273827644145167, 0.4875638850135425, 0.5087052959415723]",False,0.8000,0.8000,0.5000,0.1000,0.2000,0.0100,2.0000
19,go,Hit,1,0.6300,"[0.0, 0.001937678769408294, 0.005948634888627147, 0.00022408534485440779, 0.060498512255303206, 0.08079686787343213, 0.03694654889707692, 0.01847217945477401, 0.04286082029374093, 0.06870132208059324, 0.04507741496040758, 0.07768492719997838, 0.07511136684812542, 0.043222986654053226, 0.07024435455079997, 0.08432376538737098, 0.11324291847125834, 0.17846198988354933, 0.20468079716076187, 0.21418544232400744, 0.21538261350624027, 0.22550180789054486, 0.20568915393504994, 0.2090582643624807, 0.22060742399660896, 0.2563518643301797, 0.25600912113592456, 0.2378716335743782, 0.2644972667875542, 0.2769795521583448, 0.2809044336669284, 0.33943994423750584, 0.3236969131811565, 0.3273060564007772, 0.3049349548406345, 0.3189618656018725, 0.3051132260574919, 0.3383078178150528, 0.3363521976792783, 0.34626434008686036, 0.3585162244452156, 0.3856581578811879, 0.4269595745768119, 0.4394350316732744, 0.44708498790497914, 0.4573262920901309, 0.44559660592248806, 0.4496606823371969, 0.4705518122032233, 0.4654936182289639, 0.48841045975383135, 0.4926396144474422, 0.4846449226245333, 0.5052061785750753]",False,0.8000,0.8000,0.5000,0.1000,0.2000,0.0100,2.0000
20,nogo,Correct Rejection,0,2.0000,"[0.0, -0.039487913130965197, -0.051478334204172416, -0.04456986388036212, -0.06046077261325909, -0.08330989734778607, -0.10583578686515535, -0.08797277927615124, -0.10230579744929832, -0.1247994361755877, -0.1355277845026571, -0.16540404602503175, -0.18295295686380764, -0.19799296858722865, -0.21870000049778296, -0.2300826057107328, -0.20865216258968128, -0.1771565080915782, -0.19438172359471265, -0.1814117259257614, -0.1783446090658534, -0.17529523790465523, -0.20179753230818473, -0.22227876416025671, -0.23337700738020425, -0.2282896818026232, -0.25183055613733596, -0.2854562659090388, -0.30357053232364695, -0.30940932017207906, -0.3085165696616892, -0.3465731021645805, -0.38292557252847, -0.3786637953081797, -0.4050569594400224, -0.40197380197298993, -0.41397574885869154, -0.4200255584598592, -0.4426749341571077, -0.41955011511110585, -0.42957244093672076, -0.40793457068763156, -0.47594949208057813, -0.4907975523072868, -0.5215201462614851, -0.5144742631738848, -0.5120367831318183, -0.5227545974895836, -0.5467498542049113, -0.5374754771312059, -0.5435996165465171, -0.5580602915988994, -0.5889046227300101, -0.6246277276239434, -0.6188381590943796, -0.6313175620370883, -0.6120037280851807, -0.6262383709160094, -0.6496094146825487, -0.6443014615191669, -0.669393331417961, -0.7196461508119693, -0.7259297506233378, -0.7076958572215694, -0.6972829063727707, -0.7236458678430661, -0.6871165823097664, -0.7150500088984078, -0.7510553549300893, -0.7662003351211214, -0.7902969057693142, -0.7941916091506429, -0.7905600880960286, -0.7718617281740008, -0.7954691456268522, -0.7829329086208525, -0.8101697769462708, -0.812844868196805, -0.7916427630021026, -0.770234284741279, -0.7919597672664282, -0.8219574219529694, -0.8359724044413122, -0.8444969579614636, -0.8636224954471922, -0.9029684990420247, -0.9226514611810815, -0.9362797995857306, -0.9671528711816745, -0.9527317857762014, -0.9593420217493833, -0.9815621068543896, -0.9999060224906742, -1.0087452663701117, -0.9782812550953497, -0.9679112726601727, -0.9903561615143627, -1.0373607401955625, -1.0535926945855418, -1.0408251138073654, -1.0549606279564339, -1.0737909275173187, -1.0576288066495363, -1.0662548314776366, -1.0853676621168644, -1.0962173938185757, -1.0868918786414907, -1.1075907549055746, -1.1085530263540488, -1.1246897768093846, -1.1309709195410838, -1.1599993403684377, -1.1607240170027884, -1.1820239352052955, -1.1457330992059542, -1.1692564386988444, -1.2001545753290954, -1.2266355162409535, -1.2453360610838804, -1.256356711543884, -1.248629779276971, -1.2303558126588379, -1.229666339787318, -1.2232920142635415, -1.2580749696367821, -1.3042897121118477, -1.2738228817118056, -1.237723684989378, -1.2655205242386658, -1.256705595756289, -1.2249951673805184, -1.2159020966512328, -1.2001668946060189, -1.2193408498310203, -1.2437695100851829, -1.2374149813288047, -1.2393744341057278, -1.2510594951658676, -1.2550982844658751, -1.2555159443914352, -1.2443910979193324, -1.228982404372279, -1.2518762161193044, -1.2571557499177934, -1.2789951304475844, -1.2589221563715263, -1.24861552358102, -1.2622175744562936, -1.2874982687390308, -1.3101845627267, -1.3420973106631278, -1.339173903954214, -1.371289277465206, -1.380485320153933, -1.3952150413840374, -1.403600868892465, -1.4158349632201601, -1.4065233314039427, -1.403850500787365, -1.3986950764254278, -1.4146944819944238, -1.4325752679788304, -1.4332503429419925, -1.427423319641728, -1.443979675393922, -1.4462165022591866, -1.4530132346287512, -1.4376994337364044, -1.4307106394442863, -1.4730670894944922, -1.4727980104481455, -1.4720746873640955, -1.470510504984436, -1.4915432654861474, -1.4933955966654924, -1.5118635819271442, -1.5134198095115583, -1.5175852964764482, -1.5117717030159843, -1.4977072338749766, -1.5202910214631566, -1.5385167872178722, -1.5509969850826573, -1.5492307713550915, -1.5726239358739997, -1.5834943800481969, -1.5959829739810025, -1.6168802552193764, -1.6160529377182387, -1.6187556316229266, -1.64198962316429]",True,0.8000,0.8000,0.5000,0.1000,0.2000,0.0100,2.0000
21,go,Hit,1,0.9100,"[0.0, 0.01138273755467945, 0.0564453871633994, 0.08767431392719079, 0.09606299402701171, 0.09399248309120073, 0.10671046516305599, 0.11045915144455888, 0.08494568675727365, 0.08208621365742619, 0.12478212488114282, 0.15040170618419427, 0.165940750978887, 0.20096488553458142, 0.2004296681567761, 0.1853992438091309, 0.17568305729193565, 0.14770518716158168, 0.1413293839865173, 0.12670174156157293, 0.15077886008632166, 0.1416216402476347, 0.13089837598912307, 0.13761123909423278, 0.15473792623927304, 0.1169149964187352, 0.1423193542442884, 0.149102051570024, 0.1708924301567979, 0.16542414678496972, 0.17669038711738944, 0.18866183500475667, 0.1874888880667546, 0.22795390446663566, 0.2326233013383035, 0.2578593654335016, 0.21977236751409102, 0.25553512014040564, 0.22892200838378252, 0.2241264137999146, 0.24928003873907914, 0.2789178901068453, 0.25848294103464964, 0.27795648136521256, 0.32871936334396135, 0.3275160327144321, 0.32592922693916887, 0.33423234749563235, 0.29768656026625684, 0.3007346056783592, 0.2932347770192763, 0.3010214138047986, 0.3104839117536023, 0.29867852181505616, 0.31886566572055136, 0.3441400012863863, 0.3420193884164483, 0.36479585582422114, 0.3475724925400573, 0.348442962320663, 0.3303276343606272, 0.3548907338060242, 0.33058831778317893, 0.3071054313432466, 0.31305952346963406, 0.3151260740266346, 0.36278855587212916, 0.37180170080576647, 0.3869316966163089, 0.38704107840228097, 0.361327014060386, 0.38281801572074836, 0.35254647716586124, 0.3619459729376876, 0.36068069402599867, 0.3625548966368302, 0.36294982002418613, 0.4063769752471983, 0.417379087693257, 0.44308282329010895, 0.46936131997683106, 0.507784046719121]",False,0.8000,0.8000,0.5000,0.1000,0.2000,0.0100,2.0000
22,go,Hit,1,0.7000,"[0.0, 0.014394735237638569, 0.007906082882351902, 0.009647829661823776, -0.002224540621609431, 0.025644307289419122, 0.0271979524934901, 0.03233599600404504, 0.052561464072924426, 0.0839907059517115, 0.06501773854675122, 0.06230356991036424, 0.08908147859758733, 0.06541295199702266, 0.10482458912934439, 0.10707099573143772, 0.14624283665807555, 0.15281750058501148, 0.16006346662314366, 0.1806634577056973, 0.1881973160424411, 0.19776277460450253, 0.1968434031961868, 0.194745578819351, 0.20167612039365856, 0.21486759631112617, 0.2037258180509581, 0.21146218817878726, 0.22383337261978048, 0.22631881913497115, 0.18418068987283862, 0.21601624482106857, 0.2375262988031878, 0.23371434369143476, 0.24853372677665359, 0.2816566200614458, 0.3115377014856793, 0.3225322223691609, 0.3293392975249992, 0.3136794637181427, 0.33967032814237064, 0.3489391460434102, 0.32984993915528926, 0.3667622367068998, 0.32973104173992696, 0.3173544351539447, 0.33891597442213145, 0.3514165310492992, 0.31597808351618784, 0.3372985645818225, 0.3321490075559264, 0.3463001908747679, 0.37526904888329254, 0.36898259507404546, 0.3684512196099735, 0.4275276334205973, 0.40644174720369536, 0.43647443871998204, 0.4614185534897972, 0.46393985588360975, 0.5101109047116489]",False,0.8000,0.8000,0.5000,0.1000,0.2000,0.0100,2.0000
23,go,Hit,1,0.8200,"[0.0, -0.005084074626614567, -0.015277563094343256, -0.016467326620595094, -0.024760963943600722, -0.05311065335916895, -0.05570205895166039, -0.06446554795623166, -0.021719257625657934, -0.005076333938651104, -0.009326052811257549, 0.040651505687128775, 0.052677757680984906, 0.0806665195336735, 0.08099858751818745, 0.10341895718514578, 0.10435640607180419, 0.14349590316822966, 0.15912680758673403, 0.17941655822160235, 0.18238670463142234, 0.1932746879059923, 0.17632272058980974, 0.16789149950217502, 0.1334074731909642, 0.1288602763057847, 0.16736906805750928, 0.1629814977464779, 0.19219513513342676, 0.18884459563609607, 0.20270556130789716, 0.1934839380139826, 0.21860868736023706, 0.20176495341156908, 0.21363133736658071, 0.19482249207815136, 0.20580732355364853, 0.2412527548554485, 0.25264785801487505, 0.2671252602566053, 0.27284449456851906, 0.28728523460019106, 0.27514574621606386, 0.25225210708035584, 0.2573762782177189, 0.2789297264950944, 0.30046628030600997, 0.32048320852937073, 0.33416862542061676, 0.3452363065485045, 0.34333126939863645, 0.3379318933120868, 0.3704163610179738, 0.3934566591719433, 0.3740168621555972, 0.3662020816186864, 0.37042803698541404, 0.38336692852166204, 0.36400675309481034, 0.3568712962643552, 0.3505549851323232, 0.36380783199816746, 0.3587205050901772, 0.38464652694817275, 0.41266958309747487, 0.45276601075441003, 0.438920933093645, 0.4397638698210937, 0.4701248557929296, 0.45994759374451355, 0.45639564211346095, 0.45045777139420534, 0.5010940379951244]",False,0.8000,0.8000,0.5000,0.1000,0.2000,0.0100,2.0000
24,go,Hit,1,0.7400,"[0.0, -0.018552309226916912, -0.016414288494407167, 0.004590466058291401, 0.05980110210061704, 0.060475828222408795, 0.04901462402926965, 0.07268679018823107, 0.06309006597333147, 0.06056131926593293, 0.09899434011023553, 0.11774971795043505, 0.13831402304798995, 0.15402620709348136, 0.18565146188610854, 0.22141053204409028, 0.23057081218725634, 0.2382653043309096, 0.23393168747775897, 0.22227859339482164, 0.26139212854228344, 0.3050083653656479, 0.268202953542755, 0.270195980385697, 0.3008110472273225, 0.29642474000884506, 0.31347723995712773, 0.3175456201678193, 0.3417979155699342, 0.3669065783272085, 0.3858844981513335, 0.4031007510744341, 0.37420768632411805, 0.3925981579788098, 0.41137236713183084, 0.4078471239055512, 0.44164929325473257, 0.41656042858669806, 0.4120279946811515, 0.4013652624595473, 0.4295200842787116, 0.44117634993691257, 0.4537524212871191, 0.4711614635065731, 0.4377275724256495, 0.4389795735298084, 0.40556805425873554, 0.4193831112794965, 0.4317155206872051, 0.43020081816173783, 0.4350281703809106, 0.43435758205269825, 0.41638662521426356, 0.4110306262623789, 0.39954031540368024, 0.4102817016964354, 0.3890811559939693, 0.3972754283416539, 0.40460327691300846, 0.43026432989962515, 0.45258757130540095, 0.46299981904604487, 0.49109635825252346, 0.4966617143303853, 0.5536815849142971]",False,0.8000,0.8000,0.5000,0.1000,0.2000,0.0100,2.0000
25,go,Hit,1,0.7000,"[0.0, 0.008032139234851477, 0.03088928108339741, 0.03045159728565338, 0.03094623994766144, 0.05401723391157544, 0.05237107921949866, 0.09297578938812606, 0.08401582782565059, 0.08496084396544275, 0.05737806934382661, 0.07566772990574061, 0.09377730503365772, 0.07991543995974175, 0.09297704516716092, 0.08508392231617795, 0.09840678169758339, 0.12268448009919646, 0.11791122203595993, 0.12101388894076891, 0.12248222703026942, 0.14879959075580332, 0.1766275847712133, 0.19273342623111295, 0.2151537849873465, 0.20702262798396176, 0.22842079093818612, 0.23696382355055898, 0.2623514913772724, 0.2548737573731043, 0.28073818615129154, 0.2934636038685873, 0.2904371802902352, 0.3291375068750053, 0.3466430190854615, 0.3784432847934043, 0.36146622621618135, 0.3403000961144803, 0.3179189370056174, 0.3784464298333526, 0.35879398764422843, 0.3824716294657714, 0.41027800449378754, 0.3991350627222883, 0.43134004359566747, 0.4349444123499307, 0.4172848766072373, 0.3949739268076051, 0.4060679173747242, 0.3859040456911494, 0.3709075658377293, 0.35070927915834665, 0.3415806352256955, 0.36358733248425174, 0.3619531265781755, 0.35009097988243687, 0.38431751846703893, 0.42250528590669556, 0.4439713949523376, 0.4514444993359959, 0.5000028110704234]",False,0.8000,0.8000,0.5000,0.1000,0.2000,0.0100,2.0000
26,nogo,Correct Rejection,0,2.0000,"[0.0, -0.024761046695628584, -0.013385791362669498, -0.013899797503802852, -0.033435116558912084, -0.029763679197101416, -0.04434195069891845, -0.05628517477121763, -0.07998793819822886, -0.10157273752569174, -0.1330617788646015, -0.15243045497535268, -0.16804811880412285, -0.16103374145885044, -0.15833090389271526, -0.14971480765869855, -0.15079886250279956, -0.16085383959966154, -0.15912441957001336, -0.16462627944913816, -0.16995639198684281, -0.18417738156625385, -0.18119704790665758, -0.19216684693145125, -0.2032853265332155, -0.21147710734291508, -0.22296147251768716, -0.22434293873434424, -0.23221894721466718, -0.2651229707738329, -0.26361063686974884, -0.2947458611892804, -0.2766278841105188, -0.2788525911910026, -0.28332005659035436, -0.29366406350039714, -0.27566774941657124, -0.31052260600561216, -0.2999298616506713, -0.28849545047575925, -0.28441575563249466, -0.2844012298742527, -0.2870520149404608, -0.2846506790816096, -0.28681428403085274, -0.30045729744998995, -0.3066858998419295, -0.33375342780077544, -0.345562012950854, -0.3631586517848177, -0.3729332323072003, -0.36715286825461424, -0.38616540474357347, -0.41207495096010704, -0.40212455856580215, -0.35737545025265316, -0.36147089409018146, -0.36774994092570285, -0.3396804867405162, -0.3646888413010278, -0.3859688010394017, -0.3623989072217567, -0.37474656229926717, -0.3532658390138182, -0.3559771076459674, -0.3553050241986237, -0.3746400176151514, -0.3709248540137932, -0.38071024484680444, -0.3964654235807926, -0.3909868985113072, -0.39090773221977404, -0.3885657828609811, -0.4175428185956073, -0.43459108574240757, -0.43371822343628574, -0.4141294170581281, -0.4447540877056983, -0.4352917157279313, -0.4575128523897041, -0.47754218378562635, -0.4964107277692723, -0.5200048205870255, -0.5392191097174138, -0.5542174752611146, -0.5385639457846894, -0.5479862081874362, -0.5295075084739114, -0.5413447802151826, -0.5744585418057103, -0.5673472143448659, -0.603979063595586, -0.6407664834672153, -0.650473836377139, -0.6643290939984976, -0.6714109985419933, -0.711288177402227, -0.7697692122693496, -0.8211084460229495, -0.7922448691106715, -0.7820306836815174, -0.8042377285407307, -0.7953011612422618, -0.7953950455284098, -0.814967953868552, -0.8611042648887314, -0.8502595127967355, -0.8419176839547009, -0.8262987369457401, -0.8373818126248881, -0.8900693354567859, -0.9098086442035866, -0.9026386598587061, -0.901675644227297, -0.9271690986560988, -0.9496917957714001, -0.9501597297626043, -0.9681325606860403, -0.9960291975344059, -1.0457230029605329, -1.0912561868495718, -1.0911203844235624, -1.07337380758648, -1.0662102305823649, -1.0512434073770869, -1.0319362794556497, -1.0489311991829804, -1.0683311219481855, -1.0783815661438132, -1.103386560700451, -1.110829258346425, -1.0960185027885627, -1.1137623807567176, -1.1396789999983459, -1.1556482727477362, -1.1532804958434957, -1.148371273527782, -1.1712764489880534, -1.1835779355160856, -1.1821677633684708, -1.1742566544715773, -1.2113585291264721, -1.2020559520702285, -1.2067865800893245, -1.195578996481791, -1.1376798735388496, -1.1080223311901496, -1.1296266193125704, -1.152711759844554, -1.1585518390148617, -1.2109002208928017, -1.2201470050660295, -1.2494059414414715, -1.2173680813307064, -1.2493201782998855, -1.2310806346623895, -1.2215842378118116, -1.236585111340853, -1.2493338720452656, -1.261562371893472, -1.2895260402828337, -1.3070525845761223, -1.277896102777911, -1.2941458468740328, -1.298970646145964, -1.2970215826005331, -1.291707254141961, -1.3039947356209791, -1.3175115534901154, -1.3391928583476589, -1.3339749131807792, -1.3060528427275637, -1.2629737898856883, -1.2365513875693737, -1.2647084992151063, -1.255689408168567, -1.2483602825287063, -1.2623441355659955, -1.2492778391682444, -1.2328456390369982, -1.2388617341977801, -1.2487719988078791, -1.2582297060238539, -1.2412054384809388, -1.223710441763648, -1.2035383339003407, -1.2181515277210182, -1.219356157885329, -1.2227565131430402, -1.2660043825976108, -1.2395635935015168]",True,0.8000,0.8000,0.5000,0.1000,0.2000,0.0100,2.0000
27,go,Hit,1,0.7300,"[0.0, 0.017906878239314913, 0.031350662142809196, 0.06446644652228789, 0.09103023409843837, 0.08888415229127318, 0.10596877708310108, 0.11700085920303413, 0.11314464039788585, 0.12246725461679125, 0.17274423560879168, 0.16140097835834477, 0.16214904808468142, 0.1293325110559983, 0.13836956926786542, 0.16032280388707237, 0.1657461643574968, 0.18249416398232735, 0.20576835555245188, 0.21120195166556252, 0.24411630131941153, 0.26902153179641464, 0.2597689509525652, 0.2807102821363341, 0.29510836519607875, 0.31407672789059, 0.33539170059767365, 0.3322646486755785, 0.32326505053305865, 0.31858779603304616, 0.3114010475251521, 0.3209080861879749, 0.33201250133488536, 0.3393221117812568, 0.30970338646289414, 0.29435720249526826, 0.3006781666662767, 0.31035346151740395, 0.30561556745614005, 0.33821550425284075, 0.3215469115710747, 0.3523138208670529, 0.3270010280188889, 0.33358286887393435, 0.35653108494419494, 0.385056753425663, 0.3793600619892052, 0.37254142653373823, 0.3305601652852767, 0.3194681935813577, 0.3598971554519875, 0.38527898870908733, 0.4008976476257409, 0.38509077228519323, 0.4123392295658785, 0.44037661368649267, 0.45547338058519937, 0.44207195346090594, 0.4542510071451063, 0.4415755744207896, 0.444141071091186, 0.4762453026016978, 0.49505599845597625, 0.5105615747421287]",False,0.8000,0.8000,0.5000,0.1000,0.2000,0.0100,2.0000
28,go,Hit,1,0.5100,"[0.0, 0.02509200635842617, 0.03183947791026695, 0.07636127644809286, 0.10709703813176569, 0.10712231812526535, 0.12817432889777103, 0.14538405166318286, 0.12106572685626818, 0.14957179041650726, 0.15427927403261904, 0.15779567262185934, 0.1289123450959206, 0.17416841752956633, 0.17647414413703852, 0.1783460814760926, 0.18541698701353634, 0.22724942335483472, 0.2456064517981728, 0.27140856418072334, 0.26704456501259766, 0.27370488697149253, 0.2827778655756635, 0.3031728656620158, 0.3076962812988777, 0.3117554429162278, 0.3052038518189391, 0.2973556475807582, 0.3350867235172513, 0.35990857966986184, 0.39463353585611943, 0.3930384318428347, 0.3774908190221681, 0.3693348512776203, 0.4005900736035008, 0.427143043839322, 0.435869634589645, 0.45519763298675847, 0.4560201054338432, 0.47358717046404813, 0.4843706294117509, 0.5073902044604374]",False,0.8000,0.8000,0.5000,0.1000,0.2000,0.0100,2.0000
29,go,Hit,1,0.8500,"[0.0, 0.02250208393961638, 0.021011256926275982, 0.03603838112474236, 0.044530278632490115, 0.019123810953339523, 0.001528368701848696, 0.0029312916919160452, 0.013766712142814181, 0.02936260745841302, 0.03589472112503464, 0.07867765445227301, 0.06880860444994816, 0.07699345693683214, 0.07181458763872905, 0.07562101781762297, 0.0882689187561197, 0.08577628365434, 0.11389072046998953, 0.13232186700830012, 0.14616291324730737, 0.15749430320456684, 0.15759127471907888, 0.16389960093393569, 0.1683273782456343, 0.15239705252440428, 0.1820908516977745, 0.21311001176819713, 0.2054436063983236, 0.21950533768100933, 0.18687487140000614, 0.21516469623915607, 0.21723946788921472, 0.22505998754138648, 0.24229603379225376, 0.2802547870456284, 0.27048040385824323, 0.2544808864132334, 0.2678443446669325, 0.3151253225112427, 0.31391468230129804, 0.3384548016045731, 0.3516724048425312, 0.35315231646045353, 0.3346602859922908, 0.3743553614417772, 0.3982412164475376, 0.4022422867314377, 0.39118674555602156, 0.41558574542821713, 0.42291926377067235, 0.42288371877408254, 0.4526746172085256, 0.4858218028173991, 0.47960226422530877, 0.4895110916923069, 0.4742145999145179, 0.4381257729482208, 0.4115860011271105, 0.40710512218812256, 0.40919634022629253, 0.43641023586480737, 0.4435212132271776, 0.41195775835104737, 0.3889697794928842, 0.4091500907290782, 0.4245647294026936, 0.4489396876488003, 0.4691387924172009, 0.47022674507453743, 0.4578519146375237, 0.44950272319477363, 0.46039492519863, 0.46994138214020215, 0.47621907670808045, 0.5027554302651924]",False,0.8000,0.8000,0.5000,0.1000,0.2000,0.0100,2.0000
30,go,Hit,1,0.6200,"[0.0, -0.001271433650576994, 0.010702457720612051, 0.021422540508155584, 0.04118182870371699, 0.024789952703557924, 0.027481581076464763, -0.004827810024142121, 0.044504131199858375, 0.07598105639014457, 0.06971495988147616, 0.07010755104124425, 0.10260743038474388, 0.12643338047618388, 0.16542211012171407, 0.16686870334660958, 0.1535225488079276, 0.20258863055326115, 0.20351117455744178, 0.24306092342732843, 0.24772004215910032, 0.23810437341316779, 0.2370967953304099, 0.23198021903943003, 0.2670752370022335, 0.2699125264831199, 0.2792659871439898, 0.29704908979316075, 0.2797691835896061, 0.2617862890504572, 0.30832863478631445, 0.301615883967319, 0.3038598619416041, 0.32200332594000347, 0.29246748647352816, 0.25771039360338194, 0.26704882534549806, 0.2877897679367949, 0.30638300333720225, 0.3170503870725737, 0.3289186977604881, 0.3175922109024873, 0.30117795226989263, 0.33047485264481513, 0.3661962447234693, 0.3481858378726197, 0.3624580938485261, 0.3655646461745203, 0.41094572855296435, 0.4268465784975596, 0.46562023249048196, 0.4825854708695366, 0.5187862991792307]",False,0.8000,0.8000,0.5000,0.1000,0.2000,0.0100,2.0000
31,nogo,Correct Rejection,0,2.0000,"[0.0, -0.012396607086298798, -0.02541336133557755, -0.04150971193427977, -0.06684967639059809, -0.08780484739888661, -0.10060945826139706, -0.12353080589475746, -0.14981952043042, -0.1493259887486922, -0.13183389297576434, -0.1592119434898469, -0.1618694049586139, -0.21940270969852954, -0.2258535377929578, -0.23115404486549576, -0.2270341833596523, -0.22813725799484164, -0.2021415501131617, -0.2085969069090185, -0.23232959921003837, -0.2609814730051279, -0.2686389645662932, -0.2504299337750361, -0.27190127833041866, -0.28623819013902385, -0.3028800645372909, -0.31821419413666746, -0.3275958112942051, -0.33055430026200044, -0.3098544808733841, -0.30585942514075004, -0.2796527615902785, -0.2841723234356072, -0.30873301247063817, -0.33603842984673576, -0.340935690703721, -0.33897315299072844, -0.36479870480429033, -0.3778931295400097, -0.3948228775845333, -0.36714457007196466, -0.368336921147106, -0.37649306303273833, -0.42297682193569075, -0.3966703207655957, -0.42801967933873064, -0.41055274222065147, -0.4017818487583016, -0.41470732807583555, -0.4264628695103909, -0.4183860651470398, -0.42582955411148926, -0.441937070271043, -0.4273313263650344, -0.4648642859429145, -0.46076142284363947, -0.49863493694567795, -0.5157097210167874, -0.5595019566686407, -0.5981020596229026, -0.6265480702844606, -0.5966655164509405, -0.6024640383167156, -0.6128473959635957, -0.6264044842918775, -0.6482253388614451, -0.6881436478295332, -0.6980624158143831, -0.7004115906310987, -0.6923694341100092, -0.6937956142083207, -0.6921645187048523, -0.7106840907679427, -0.6733484185624279, -0.7058384738409496, -0.7613482177940448, -0.7874896331098246, -0.8132511948140041, -0.8176380394700453, -0.835162972103003, -0.8563470655010713, -0.887693756642786, -0.8876748162996324, -0.9078407889228665, -0.914841917545626, -0.948158105676801, -0.9577143189131473, -0.9631392690308705, -0.9496500920279815, -0.9608868692314488, -0.9976727350002308, -0.9983713870260574, -0.9700610473723359, -0.9975703055191075, -0.9996970096946785, -1.0168791995835307, -1.013281447099318, -1.056997221215683, -1.073170999434984, -1.0745804800754117, -1.0957393592071745, -1.0567034890740201, -1.034283001471779, -1.0456881289141842, -1.0584001832363072, -1.0708189515127258, -1.077357045363808, -1.081665515834489, -1.091009990048167, -1.096984405622267, -1.0960500821035326, -1.1260571112651232, -1.130782941100648, -1.1052174436010884, -1.1203737480024791, -1.0954899438556671, -1.0808721376999826, -1.047372736240875, -1.0555717063995795, -1.0855201694568504, -1.0686745898382932, -1.1212796443260158, -1.1412166161865223, -1.1418979218197816, -1.144516998803672, -1.1113028002877154, -1.1328137652825927, -1.1120758123503578, -1.1251136127503796, -1.1482296774849086, -1.1432079140642548, -1.1580218515829286, -1.1841754882300064, -1.184283924409501, -1.2051399131576561, -1.231220663696585, -1.2589878009750286, -1.2741849313417581, -1.2801190614586058, -1.2497717502789019, -1.2744577775199746, -1.2866029216747763, -1.2727205341715717, -1.2980477115623328, -1.2847200538857844, -1.3164009155978817, -1.303229149599014, -1.3268363331395852, -1.3260143666656494, -1.3335399407509707, -1.3519842405733151, -1.37506237944733, -1.4175416583404628, -1.4534883473989788, -1.4621775168410582, -1.433111621329247, -1.423629672031881, -1.4250996925658377, -1.4144274731027908, -1.4227379180639308, -1.4158783539384485, -1.4192515148089264, -1.430313180483486, -1.433691104960248, -1.417177562017495, -1.4246886716882607, -1.4454077577045925, -1.4423201901636828, -1.4441756584518288, -1.4490001060579176, -1.4356939452484987, -1.4801256477980043, -1.5074433553985724, -1.5131080290994157, -1.5121653303960336, -1.5424059437246491, -1.5178197550919825, -1.4909815087302132, -1.4592005058051245, -1.4309632383807493, -1.442225575041055, -1.4657245495173103, -1.4919897667678306, -1.5027318986090115, -1.5113806375159688, -1.4926040764589916, -1.5210978644981987, -1.5262320880492437, -1.5304932896688583, -1.505601198721817]",True,0.8000,0.8000,0.5000,0.1000,0.2000,0.0100,2.0000
32,go,Hit,1,0.6700,"[0.0, 0.04188482283127032, 0.07798719922395843, 0.08017549470870704, 0.08709952624001291, 0.09003412681655194, 0.09645204844083029, 0.07718407402631314, 0.05661123836032399, 0.05851544378245849, 0.059131462602853346, 0.0668616956672686, 0.05358924423278724, 0.06503585984230283, 0.10145326276033068, 0.1317062167472208, 0.12758621179179233, 0.12814332087316627, 0.1291931675041668, 0.1573471415518703, 0.15597352916781865, 0.1934174824999476, 0.1953991585741282, 0.18223815066468863, 0.17605659110659425, 0.1941599093880441, 0.23842996980579656, 0.2286885653622612, 0.26018386104019875, 0.2823679538667797, 0.3139511949181171, 0.3452757765672264, 0.33845890553855973, 0.3470849001989604, 0.3201510849088305, 0.34154394938993005, 0.34057408395798944, 0.3539626319267509, 0.3351225324284741, 0.35101129322239955, 0.36435181355956625, 0.36816563498721516, 0.32369415783290706, 0.32198170403420107, 0.33514904223242065, 0.3253934979960412, 0.3468729175180893, 0.3392716089856309, 0.36931284494620525, 0.35600739705696516, 0.3879795128448741, 0.4095314998731073, 0.42169718927279076, 0.44619579341764903, 0.46256057002864404, 0.48392223754882563, 0.48418648629572575, 0.5158901910992818]",False,0.8000,0.8000,0.5000,0.1000,0.2000,0.0100,2.0000
33,go,Hit,1,0.6100,"[0.0, 0.006330635177174983, 0.06670422460469501, 0.020985642805098043, 0.0777143804171683, 0.10511815104728281, 0.148806849531341, 0.14690258384507787, 0.14295405286469146, 0.16523974788243986, 0.14020075112243274, 0.17408306685627256, 0.19594053849900306, 0.20786001080263658, 0.2103418524105316, 0.20779145837342772, 0.20869068863297452, 0.2092800338725948, 0.23887425583399588, 0.23597344173957935, 0.25326603946342807, 0.2845361956118706, 0.27381681745082864, 0.289668851218704, 0.31440986505091095, 0.30931671963714835, 0.32451595714800674, 0.31857527629019244, 0.3009689729149197, 0.33571179761686476, 0.36441656377952975, 0.36171883630669044, 0.34287505348238906, 0.3839979600869163, 0.4009500116122775, 0.4377385388793099, 0.4492762047318386, 0.47876284858995166, 0.49709082221377987, 0.4646459067913638, 0.442067172805353, 0.4691193897570601, 0.4679609309242819, 0.4880735900036118, 0.4812689669758975, 0.48126559545321557, 0.47045194018405573, 0.46931858510508817, 0.47591669928292013, 0.496749712512301, 0.48908240265450315, 0.5010322649995058]",False,0.8000,0.8000,0.5000,0.1000,0.2000,0.0100,2.0000
34,go,Hit,1,1.1400,"[0.0, 0.027080979419244373, -0.0032423975121335866, -0.014843081267508228, -0.011226447452427894, -0.02188963613980794, -0.028920961300920367, -0.007180581466617687, 0.008540080379625226, 0.006828503754144278, 0.002927023562862263, 0.006744429630721394, -0.007816478780119034, -0.006129768367910899, -0.03211980968679744, -0.019818093791930717, -0.030597749024123724, -0.005788601408194736, 0.030245454226310548, 0.04485201155009845, 0.041966088338870694, 0.0527425550527475, 0.049573833907758345, 0.03517781430802684, 0.044279601579742964, 0.0591972702848748, 0.06735089456008651, 0.1018380710886788, 0.08877513932542257, 0.07805078573475896, 0.08437958217117589, 0.06032703123744615, 0.08423605112223839, 0.09522157599551742, 0.08511982854958619, 0.11137485677809034, 0.1087682026528087, 0.0899814488237446, 0.07194891450840707, 0.04067364098468128, 0.035939223016966206, 0.03246063857759111, 0.0627414000892662, 0.05943528879473624, 0.028926315932884493, 0.04948571842331685, 0.04452001968106857, 0.06873679070596195, 0.10113859522428893, 0.10872618090303894, 0.09508642095919045, 0.12716091602461715, 0.15879920109719375, 0.18125298215211552, 0.1908069472371348, 0.19900151648815845, 0.27043347174314303, 0.2776120405529346, 0.25411112596019875, 0.22445971760191066, 0.2161892979698886, 0.22783858377798838, 0.208061303921384, 0.2079586896541152, 0.2337692666122078, 0.2236496110971078, 0.22387588112598952, 0.2502874260336125, 0.23015865534673596, 0.2284742777846778, 0.21618601401900153, 0.23292975571832966, 0.22887002538274653, 0.21540844229897474, 0.20758981701740573, 0.22251827322298684, 0.259924170802524, 0.25759583390158114, 0.2559025476561661, 0.2449684733262142, 0.24757245008356632, 0.24121751671216254, 0.24940324542600403, 0.2437932976467042, 0.2597770788595238, 0.2906074069737917, 0.30401681411312176, 0.3159083255685785, 0.3096835075892799, 0.3087011792389981, 0.3074258212421442, 0.30672465305064284, 0.29787552801242523, 0.28458546156478126, 0.30324883403407354, 0.3074629458738013, 0.33493116240412, 0.36502963291052537, 0.3813236433452738, 0.4212018051341153, 0.4360421571484051, 0.4261524598672381, 0.4788698972002091, 0.48039796818950853, 0.508205999539969]",False,0.8000,0.8000,0.5000,0.1000,0.2000,0.0100,2.0000
35,go,Hit,1,0.9000,"[0.0, 0.026272264663841235, 0.02063215230828836, 0.048003997573724824, 0.05053122951474527, 0.06712236660114862, 0.0803491326883122, 0.11610978665287588, 0.0915442609034658, 0.09461662078113933, 0.11949649885840445, 0.1528653944573528, 0.13262768826933677, 0.13058035071702728, 0.1311187537673135, 0.1158279676460112, 0.12001309250446685, 0.10000059271023906, 0.0886577787197046, 0.09082368034075503, 0.10154528057327364, 0.12761768683355418, 0.12463847075879235, 0.18232089900298057, 0.17004547621088592, 0.17629345055369056, 0.16362201967460133, 0.15847759246976048, 0.16309185669148518, 0.15323379081820498, 0.15828012420149631, 0.1673509482831023, 0.20256147487226694, 0.21763338668014381, 0.24498394944576735, 0.23797812355214235, 0.25889961052486316, 0.2665213288932205, 0.2605661364480478, 0.2612477988249441, 0.27639960261871654, 0.27704224931438626, 0.28753351558914897, 0.2918856869995094, 0.3220709070298643, 0.3361987026563079, 0.3588293163251849, 0.3431428690240078, 0.33441054614725163, 0.3649059735510029, 0.37687484788881753, 0.3716009559073557, 0.3671777348984894, 0.3787005434577774, 0.41260244992430406, 0.4037037607268143, 0.38471867080400446, 0.3824152907549777, 0.3957115683197606, 0.39756626951331797, 0.3892315985287492, 0.37647863074190047, 0.3812108135345431, 0.4029527039257631, 0.39376380448871506, 0.42979779213615976, 0.41949528544156983, 0.4248022758841383, 0.4079128901004379, 0.43675515211273286, 0.42514361984869914, 0.4133602507057488, 0.404217904255613, 0.450328940602628, 0.4559126395299088, 0.45008603401284986, 0.47247033594555615, 0.4702269529679667, 0.45809584900709, 0.48280445509277253, 0.5089765886221054]",False,0.8000,0.8000,0.5000,0.1000,0.2000,0.0100,2.0000
36,go,Hit,1,0.7900,"[0.0, 0.009461848604477166, 0.0065639633638342465, 0.005333967602929996, 0.012432418217210108, 0.03414904143256284, 0.016515818674620607, 0.03836535538729419, 0.05045880820558809, 0.06640929732323808, 0.06854667246888706, 0.07618091246533724, 0.08781364943170897, 0.10089373669081914, 0.11790403205663147, 0.13115061121464397, 0.1367222991355629, 0.15456626897077036, 0.15492424760347073, 0.1776778612260045, 0.16099203307367202, 0.17386518867052508, 0.21751084462356338, 0.2210272015646837, 0.25805973589912473, 0.24582455546166027, 0.2567094024167951, 0.27106580664276614, 0.30792108639905535, 0.29564002602664374, 0.26648780550624507, 0.2721268905008926, 0.25874835539931235, 0.2770912152424224, 0.26566116706566917, 0.2896854876567586, 0.2966064021019448, 0.3034679714387613, 0.3382917414392427, 0.3759294896186973, 0.3699514018753442, 0.3630803297796189, 0.35122197047255, 0.36818956162367067, 0.368284700386328, 0.35994225182139256, 0.36791119773806696, 0.39453488367957906, 0.38184264313527355, 0.3754577381489586, 0.3946548666710836, 0.40494953275402074, 0.3751029500685158, 0.3950331974292154, 0.3873396365916577, 0.40458482583118555, 0.4306754115384251, 0.45289334445536356, 0.43479555227560235, 0.39399230785447276, 0.39111346194985935, 0.43176175399832484, 0.48436066314338316, 0.4806304249297363, 0.47665332695792845, 0.4606835882487693, 0.4686545735499839, 0.46391908561651907, 0.47636084367969767, 0.5023583793361408]",False,0.8000,0.8000,0.5000,0.1000,0.2000,0.0100,2.0000
37,go,Hit,1,0.7800,"[0.0, -0.011595173064923733, 6.617744413165393e-05, -0.015625866349997512, -0.009907652383979303, 0.005979316233728684, 0.038029932796148275, 0.05692219934872081, 0.05413355211734633, 0.06889424220858226, 0.09353662229394455, 0.08437093307139622, 0.060413890347996727, 0.08533654022567011, 0.1127810445732224, 0.12534800579713212, 0.14385367583057562, 0.14904119246493064, 0.14498795103664502, 0.13827711780042304, 0.14825767029528095, 0.18449668111665188, 0.184387898098458, 0.18068633476732862, 0.14982445201567532, 0.14368234980105776, 0.1513408130457332, 0.12721802798552276, 0.12551873359621027, 0.13252642740091075, 0.15805146039317822, 0.14734624182991465, 0.16002301924754983, 0.17089242916810937, 0.19430010373652692, 0.16842388533593286, 0.18054032032946302, 0.19177585942776187, 0.19348304755596907, 0.22454014037798942, 0.1830371034343444, 0.193950002663795, 0.1949678158531587, 0.2301863296587688, 0.21409027082099402, 0.201852438668985, 0.2198228897631468, 0.2598911211001717, 0.24189130713809565, 0.2361329113630742, 0.23304008487120004, 0.2682757716185412, 0.29349224530604345, 0.2966168208875214, 0.3341578123477846, 0.34217607554415563, 0.348391831679121, 0.347477750684865, 0.37159892658522453, 0.37499747693046104, 0.3871387607683275, 0.3874976705285819, 0.41288377101608037, 0.4439764603150606, 0.4450945282107597, 0.45049603704147967, 0.4668906139904671, 0.4826513981941213, 0.5007611953346294]",False,0.8000,0.8000,0.5000,0.1000,0.2000,0.0100,2.0000
38,go,Hit,1,0.8100,"[0.0, 0.014849656258439092, 0.035290417105214564, 0.010917204447864731, 0.0169988805698813, 0.019743600054303007, 0.0048944353909555136, 0.01838200939014875, 0.0032320848135530995, -0.04640766693147699, -0.039140816171982416, -0.021136737591171018, 0.006849329167197184, 0.036126592543709646, 0.060540246717185164, 0.06677278012575237, 0.09621452169038122, 0.09992911921880146, 0.10274119367459889, 0.09638305315333066, 0.1161617650035753, 0.14111529046472035, 0.14934333699956637, 0.14248282180096306, 0.15279306073409446, 0.15491237914210232, 0.1781537716154045, 0.1700667121349863, 0.20961368115141815, 0.20472711284418538, 0.19624325788170116, 0.15369462921066113, 0.15579665169176285, 0.19860059207934755, 0.19328657976613897, 0.21183620173856083, 0.20601486583499698, 0.1617917510135201, 0.21354659632929954, 0.20773622941444203, 0.2482513157409972, 0.27705002873229084, 0.2972655409233888, 0.29878155806839585, 0.290893257358289, 0.26620085292609713, 0.24182060653989504, 0.26489279053188886, 0.2369451133458924, 0.26992555021773185, 0.26000084475827995, 0.2598185992957995, 0.30108686715147404, 0.3255906606887668, 0.35547107039279124, 0.3625462857802552, 0.3751789220041298, 0.39351558440423984, 0.3895937059682756, 0.3822297009429787, 0.3746623675288285, 0.39504219638647015, 0.39153683467540534, 0.41588723370031583, 0.4731159193375755, 0.43440593550244994, 0.4409165941169945, 0.47316975566658165, 0.4904687337362812, 0.492103950374029, 0.4968524176544061, 0.5309578016035948]",False,0.8000,0.8000,0.5000,0.1000,0.2000,0.0100,2.0000
39,go,Hit,1,0.6500,"[0.0, 0.045363886281901585, 0.05060991896543332, 0.06712906488369391, 0.06862541787870423, 0.07557997611288375, 0.09577869355525742, 0.11288267402488468, 0.11445509918375314, 0.10726803911400111, 0.11474275996828617, 0.106818191789188, 0.105743821619966, 0.13632281333556923, 0.1535492513356969, 0.17304911373272297, 0.16793659813828699, 0.20725984877311748, 0.19160053861212728, 0.1835634182702498, 0.176124846120545, 0.20675564438798538, 0.2441517023228127, 0.2265961618211803, 0.2094925765399881, 0.21461842870449133, 0.2866890910803921, 0.2734906854082605, 0.2563437012906979, 0.2085419452767776, 0.2369404042464054, 0.23473090645810055, 0.24915062479339226, 0.2585081838359051, 0.24948474808804488, 0.23964306440171626, 0.2602315184544784, 0.27635111790064637, 0.27697505567564884, 0.29047740719211274, 0.31430132064536104, 0.3101925955473156, 0.30897913489146184, 0.2743047494383396, 0.2624111497258376, 0.2510406261950409, 0.2630933072356396, 0.27886418896681975, 0.28051122310279664, 0.32135709137303664, 0.34639403894343923, 0.3944420980473852, 0.42832333608869777, 0.471152143193451, 0.44551009101349587, 0.511575152100798]",False,0.8000,0.8000,0.5000,0.1000,0.2000,0.0100,2.0000
40,go,Hit,1,0.6900,"[0.0, -0.013924590128514231, 0.036505408937468495, 0.06452943072814454, 0.04548763905481466, 0.062445008379943, 0.07115677986430301, 0.10283980848820419, 0.09857264302842163, 0.08472531160130001, 0.0745652842571761, 0.10413165707793544, 0.12507025036141822, 0.10824890091052669, 0.1261915973681276, 0.11270842172027629, 0.09627033366087576, 0.09080119222924013, 0.08847087411239121, 0.06235279389595371, 0.07477889240163736, 0.07957382154036513, 0.08839739039001375, 0.09753510143951852, 0.11654979771936019, 0.11554596144923082, 0.12780184257508156, 0.18091514430706615, 0.19407598734695697, 0.22185227717185318, 0.22257356548310203, 0.25856819779770257, 0.27956546598788384, 0.2896174303776024, 0.28050532011674795, 0.25896008342182353, 0.252583541300048, 0.2593683177900529, 0.26803694639053305, 0.2876628713322077, 0.30242699322956856, 0.31356192006931455, 0.33005016497467693, 0.3286714945630616, 0.31194481520417483, 0.29854477941528557, 0.31699013966920475, 0.3151512399744818, 0.3210990286606494, 0.35048124808835535, 0.36750305655258364, 0.37696272688846016, 0.38158624849045025, 0.3830087823225111, 0.3907455299387305, 0.4068522293257789, 0.41626903740755744, 0.44906877131246925, 0.49317133927057977, 0.5323018205503451]",False,0.8000,0.8000,0.5000,0.1000,0.2000,0.0100,2.0000
41,go,Hit,1,1.0700,"[0.0, 0.06427394194774816, 0.09201520229729515, 0.09984876766330532, 0.09590691746617139, 0.12560270497799314, 0.11811160234885812, 0.1417207582883318, 0.12582922058331414, 0.1707231258067183, 0.14486306590711429, 0.18178327348347892, 0.1979751763507565, 0.22829921944804366, 0.24730515086527355, 0.24137126249019997, 0.22573234944246917, 0.24025888355693018, 0.2409992626689172, 0.2174981599785091, 0.20080790729064874, 0.21095736118778807, 0.20200353324162892, 0.20105422862143094, 0.2102709863171259, 0.21097469078017478, 0.21789659285370228, 0.21678903969231997, 0.21008031654195397, 0.22353337913930454, 0.2046095765771272, 0.21313255812732934, 0.20698290711106504, 0.22798309622743687, 0.21327335959644378, 0.2189926778156414, 0.19147140039451138, 0.20704196137510475, 0.21952122608649932, 0.22096691521836487, 0.22247633937085196, 0.19263575534118507, 0.20522357844222505, 0.21919526707233797, 0.2604789856739192, 0.3077292062710994, 0.29960072236768853, 0.321382989892452, 0.344911651397936, 0.35925873104179884, 0.3746831882242171, 0.3597915627157384, 0.35649463418159505, 0.38202864584135604, 0.35515720736554923, 0.3697287014547712, 0.38295590707548294, 0.35241051701492093, 0.38290134082268945, 0.40508890318618085, 0.38065772896107963, 0.36872579679098505, 0.34110688402482015, 0.34611308070436, 0.34913557510532994, 0.38048667373909195, 0.3793592629663455, 0.3424965944101832, 0.3701608056326608, 0.3319007840924496, 0.334971959250501, 0.3467995225703088, 0.33021708667706284, 0.35353827647551295, 0.36612460428054294, 0.3865279062080697, 0.38934944405506927, 0.3831586921738777, 0.3739780764287055, 0.4054478699093147, 0.4333134977949422, 0.43360766099337605, 0.4074716627443056, 0.4133075672709297, 0.4517624004744058, 0.46332739149943686, 0.4584872463136283, 0.42118410704394404, 0.4315830512261593, 0.47204559179788264, 0.489163072405206, 0.4744123097605183, 0.4649147925245521, 0.4421051221222539, 0.4312788732188957, 0.44310140924458763, 0.49054343150338403, 0.5054370475263504]",False,0.8000,0.8000,0.5000,0.1000,0.2000,0.0100,2.0000
42,nogo,Correct Rejection,0,2.0000,"[0.0, -0.02316632033747064, -0.010974234057207781, -0.046491838853476915, -0.04467595793483506, -0.0439885401505095, -0.08980028373806875, -0.08540248845667524, -0.0765093153001729, -0.10043078514819875, -0.11071361521634679, -0.14365753341678714, -0.14629618930163615, -0.1831022886636985, -0.1331237048757192, -0.11471973737740579, -0.12247960175649004, -0.12633570458048046, -0.15632457003827943, -0.17707377750251593, -0.13976297962326695, -0.16677462681296434, -0.20600256782150728, -0.18987839500041676, -0.23319160206458808, -0.23024629855302564, -0.20725508119339878, -0.2061898001362788, -0.18487310664581705, -0.22939792073008602, -0.23911424042520543, -0.25138998923863076, -0.2506141566281629, -0.2871773877472601, -0.3142099136899834, -0.3274102383479884, -0.3566856796536299, -0.3971978178696771, -0.4208980650926421, -0.4115818888971562, -0.4200383070462007, -0.4038545941952475, -0.3871133435884673, -0.4315928456726313, -0.46412175967983493, -0.4630218657256621, -0.487910028016205, -0.5003802979174181, -0.496194865353114, -0.4745258408220786, -0.4540555691547813, -0.487991750808234, -0.48162656127848963, -0.4634678551286444, -0.4607474896554661, -0.44286932324137607, -0.48277473138166915, -0.5179953450537813, -0.5541667751358894, -0.5341495051667744, -0.5087574546502588, -0.5184513910847915, -0.49214233977567395, -0.5457456031753283, -0.5606480968023813, -0.5689431264867395, -0.558315918957939, -0.5642301107741033, -0.5765626555826713, -0.5587658254291334, -0.565152067896813, -0.5772656875082272, -0.5837962258245216, -0.5925850228510438, -0.6047476752540216, -0.6364554156823456, -0.6226851332964464, -0.6275044443477952, -0.6183046689534428, -0.631481525383113, -0.598541448215846, -0.6025716322012973, -0.5942634796360965, -0.5892024493310868, -0.6080315084122543, -0.639064585728533, -0.6118154894148284, -0.6091842654848894, -0.6030642834254626, -0.5996675152887269, -0.6172805927027704, -0.6227133688202299, -0.6501731164495708, -0.6800234799533028, -0.6769979373334688, -0.7307409389402423, -0.7182654551202606, -0.7252704359405733, -0.7328001675310318, -0.7466806504333506, -0.7656437304224324, -0.7813138213255999, -0.7897829747992023, -0.7846664541787984, -0.7890601580713703, -0.7949901120283206, -0.8102163182751518, -0.8248137786014448, -0.8069445996420187, -0.787090727302462, -0.8185731591134064, -0.8619799187630705, -0.8679400576394838, -0.8932174706254256, -0.8877514515596979, -0.9124436668718645, -0.9075871604237471, -0.9515149859937829, -0.974612390168696, -0.985286627825408, -0.9491762052199669, -0.9605735115048823, -0.9499791005120519, -0.9461009104240268, -0.9510417617436546, -0.9778877227700007, -0.9726537689491899, -0.997224026514202, -0.976916521057296, -0.9950078267090273, -0.9917878332144062, -1.0121054110637382, -1.0091973175252205, -1.0311479961467256, -1.0467829521393877, -1.0297500695483366, -1.0377700924126319, -1.0504142614809817, -1.0573015321294619, -1.0674671111093235, -1.0768052855453871, -1.0747871089420231, -1.070285542414298, -1.0204632370085052, -1.0313575461231528, -1.029138816443454, -1.0393156735393525, -1.0538378757205256, -1.0966768520973713, -1.058807483920219, -1.0391556918641485, -1.0431495451912136, -1.0333254776676244, -1.0716103169315911, -1.079749901687262, -1.0941269616143259, -1.0726040716956886, -1.0987186369597686, -1.1246163711215194, -1.132363332083039, -1.1287796120283853, -1.1168975570755353, -1.100906632917599, -1.114257794553253, -1.1215834609204403, -1.1073812640673986, -1.1006622649906965, -1.1015561885275804, -1.1218603861429435, -1.159346538874502, -1.1872972435413167, -1.2242227880859664, -1.2447472575054073, -1.240340754913466, -1.2566889427834451, -1.2533232687592895, -1.2707298173912, -1.2470880345512467, -1.2418152444342037, -1.248582086207732, -1.2301404756699335, -1.2238941698565555, -1.2219146381519337, -1.251830211478165, -1.2885930293245227, -1.286147073870744, -1.3056124334073629, -1.3307016744224822, -1.3386060495238226, -1.3498556611654111, -1.3657581564293542]",True,0.8000,0.8000,0.5000,0.1000,0.2000,0.0100,2.0000
43,go,Hit,1,0.7600,"[0.0, 0.04292902478348461, 0.0785447332086494, 0.09162329048000695, 0.09778282611873815, 0.13671872866027535, 0.13903839641002672, 0.1383923975153482, 0.15540895166364602, 0.160031439688034, 0.14822777250128213, 0.159936995041329, 0.17789924513687977, 0.18893148495276116, 0.2316809431009365, 0.2325435758949453, 0.2409938980800015, 0.25252175393805987, 0.24285088005149574, 0.25074089869841576, 0.2842275800321024, 0.2794436347058893, 0.3029692631808047, 0.3165548315990886, 0.3101998005576596, 0.3485925834678153, 0.3746774666528821, 0.3864481202222881, 0.35655210791801695, 0.3693193491823539, 0.39774418040975534, 0.4137135427055992, 0.42693202104462813, 0.482506718496127, 0.4750476982605064, 0.46657175463197925, 0.47749233550267467, 0.46543940972823633, 0.4770552992390944, 0.4428541153657373, 0.4351012221081977, 0.4553389220893575, 0.4464869870954671, 0.42087222993852486, 0.40850652861879777, 0.4109609558906809, 0.38860815540175414, 0.42146281818506093, 0.41240619635106124, 0.4096051988434989, 0.42701404836643614, 0.4178887581670608, 0.41508913651279095, 0.3801824865301227, 0.369403403409172, 0.3894850166625383, 0.4178775284626784, 0.40899710265594796, 0.4501567131994052, 0.4385841815186518, 0.4663054490190831, 0.46979409599969196, 0.47670323626354516, 0.4704371998529067, 0.48235116052706944, 0.4991870170733224, 0.5148136346225611]",False,0.8000,0.8000,0.5000,0.1000,0.2000,0.0100,2.0000
44,go,Hit,1,0.6500,"[0.0, 0.0186214570718271, 0.018063667971441735, -0.0011407957171610528, 0.02159978314810935, 0.024452129648839246, 0.03158625346298451, 0.0232722960000192, 0.033919407931629994, 0.04009390412954383, 0.03811413409125255, 0.021560265582968526, 0.044491988951755365, 0.03517699769037877, 0.014159740723461049, 0.06086240382445693, 0.06300428280229461, 0.05693710659400729, 0.0714271884383186, 0.08251506030776938, 0.10133228719682816, 0.08415195778818965, 0.08359169699951564, 0.09703555574726737, 0.12615863138023467, 0.14192004313230813, 0.1637472772574776, 0.1688560940144677, 0.18540263296586879, 0.17695980867251104, 0.21027389208598746, 0.20347624738222192, 0.23215980214303714, 0.2222745334779335, 0.20320404179443208, 0.21226809677772976, 0.24821330006965203, 0.2550691503884416, 0.24987855177775387, 0.23407723156120475, 0.23793934076011766, 0.22840832166351796, 0.2658338681735586, 0.300517020719522, 0.30517038733921187, 0.3132160254129865, 0.3107650860741643, 0.32664038780783483, 0.33824208031138125, 0.3607992796836224, 0.38803750616529653, 0.39742103014733365, 0.4309183981822484, 0.47051808152388647, 0.4870132615520542, 0.5103228577040454]",False,0.8000,0.8000,0.5000,0.1000,0.2000,0.0100,2.0000
45,nogo,Correct Rejection,0,2.0000,"[0.0, -0.02859149481076203, -0.004237164445285234, -0.07770552394848496, -0.07618125289974072, -0.06373630192497451, -0.048795929861442065, -0.08045134750940179, -0.04930487918393928, -0.05148967109332188, -0.020622313360161945, -0.057624262505665276, -0.07999894287867329, -0.06946342688023706, -0.09357507518835126, -0.08599648071148142, -0.11780950455841888, -0.1509965104491726, -0.12138376124290977, -0.14393526870052353, -0.11617408886150257, -0.11132722433046072, -0.10421306710268519, -0.07141932294457196, -0.08575874011570746, -0.10864187381604812, -0.12523482484518744, -0.1451196436987741, -0.1276343588005216, -0.10134852975330069, -0.09490894509073862, -0.05981265318302513, -0.04314813327711043, -0.061677146579424635, -0.08036802528673596, -0.11129983741424498, -0.10328484171023342, -0.10283658125426981, -0.07251590120651516, -0.06083864878142638, -0.057851403897213716, -0.05607592724487807, -0.07143877811549665, -0.08370346145682991, -0.10716155757078039, -0.11157787242507398, -0.11835159550350538, -0.13567127706332235, -0.16681730700993663, -0.1905618972676821, -0.19295393909290542, -0.18353663165939046, -0.17581234057993847, -0.18839359152458116, -0.2043148447529312, -0.1882032649425826, -0.14780981135550905, -0.1494654606299968, -0.161387217783842, -0.14779231821562908, -0.13146676635976767, -0.12734422420163316, -0.13584139784411997, -0.13056813940412976, -0.12846256255849406, -0.17143434492175075, -0.18591946179700336, -0.2099406832731624, -0.19183067697078374, -0.20768134283689071, -0.2274186978546763, -0.22071526924957582, -0.22280637002750206, -0.21425755725560003, -0.22972306332531248, -0.22232061796253377, -0.25770038164614306, -0.26148616982771994, -0.2768272322660741, -0.3172538835810487, -0.3286699524195083, -0.32967457870444433, -0.3327707858319633, -0.3147393674394403, -0.31600398279005154, -0.2944078974420392, -0.27511187406180193, -0.3059760201673864, -0.2740114343318447, -0.2948291780254721, -0.310199271440065, -0.3176227594642367, -0.3175600823889319, -0.32991268951953323, -0.33456805911295956, -0.336267071011195, -0.3620628611738789, -0.3796107189317013, -0.39172369057648143, -0.41670236085761025, -0.42237173289904156, -0.4375177884865319, -0.4336955306254802, -0.42231012032273507, -0.41632897486548576, -0.46801623359039984, -0.47639424973364186, -0.49254031122629227, -0.5423549474911902, -0.5507034770902599, -0.5383756670253258, -0.5514529783664052, -0.5596291763836088, -0.5682202726461123, -0.56622766381096, -0.5995604531454813, -0.63217802535714, -0.6670478423817431, -0.6608076537475116, -0.6694967460001633, -0.677467621362643, -0.6724802721263349, -0.6771029286063444, -0.6682342024434769, -0.6457553879573361, -0.6643600751141069, -0.6977392920819367, -0.7123037692981797, -0.7353215448714274, -0.7538900871228394, -0.7637500278587376, -0.7631068329707449, -0.7788680942580282, -0.8078876715365128, -0.8122147489384653, -0.8152646276381489, -0.8526352176895088, -0.846066956512225, -0.8377989287144363, -0.8327815774022648, -0.8246186590550503, -0.8618766638765674, -0.847464403983904, -0.8415696071848583, -0.857731032491395, -0.8420185333875086, -0.8541997734564009, -0.8472351563123842, -0.8656751753413137, -0.8475508418946035, -0.8412107819168281, -0.8974090323414468, -0.874107453381942, -0.8702393770866328, -0.8670721692981846, -0.8918546319193643, -0.912990390133766, -0.9083004049725194, -0.9488097128730539, -0.9573264003256152, -0.98287523990354, -1.0006390322589895, -1.0051911058807506, -1.0355138586956596, -1.0210607985079332, -1.026667854427441, -1.0477620452164322, -1.0364286832224567, -1.0419802854974123, -1.050582561961271, -1.0788926589852625, -1.0960149193163784, -1.0847218004074821, -1.0998456260520748, -1.1071245503094291, -1.1042697929372483, -1.0889374561860863, -1.056212328255043, -1.0835493107947065, -1.0920908456341838, -1.0721574660390236, -1.096373341723015, -1.1344264222504248, -1.1453128571045297, -1.1784832040624738, -1.206891787038768, -1.1873200787230296, -1.2106262619419288, -1.1860072199731553, -1.1837190752593545, -1.1743007225676916]",True,0.8000,0.8000,0.5000,0.1000,0.2000,0.0100,2.0000
46,go,Hit,1,0.5400,"[0.0, -0.04716309964421817, -0.0174971077927011, -0.009159987183276062, -0.008215582789930051, -0.009172277261403183, -0.007493490880362819, -0.014362381510962039, -0.005479307895400215, -0.0031593251675571246, -0.0031007606221698627, 0.009008247921339887, 0.009526749755251248, 0.007878729130747473, -0.0058926307394798864, 0.03890692846752716, 0.024646678773156325, 0.024472335760292403, 0.06744372599950775, 0.10941206907763384, 0.12998450344425838, 0.12474277721207164, 0.12343204668330408, 0.12886397429972207, 0.1221625138907013, 0.1409587225636761, 0.180251274345394, 0.19420971895926056, 0.20272466880623777, 0.21478605390144115, 0.22886218615027965, 0.24729819193810237, 0.2673219173832526, 0.25961626138856114, 0.25708346500858864, 0.30856485082663376, 0.3430683170698007, 0.36201689529041925, 0.39069973440989725, 0.40815564268875554, 0.43238599505572883, 0.405683091994644, 0.46497306629804946, 0.4876968351008048, 0.5157319045292948]",False,0.8000,0.8000,0.5000,0.1000,0.2000,0.0100,2.0000
47,go,Hit,1,0.9200,"[0.0, 0.006489298012686998, 0.03514074382203334, 0.02232893603831544, 0.04813246377433762, 0.013813741521955428, 0.04724223759528006, 0.048685920413373114, 0.07560406222048563, 0.04973330540654985, 0.08785328672814698, 0.078409741190466, 0.08274598897659217, 0.10695073941209653, 0.12345543992237241, 0.1616999274730938, 0.1542113392903214, 0.16831428119000114, 0.18151416589753178, 0.14520708018477024, 0.14921820779547457, 0.180065611012921, 0.18452693611980409, 0.19507887726233245, 0.20923941042442118, 0.22770814112954546, 0.24336952397167547, 0.23470465225860881, 0.26147903628418084, 0.2635637067862725, 0.276364943192702, 0.30644504062005085, 0.3008849737146428, 0.3176609138728776, 0.3116430316045616, 0.3082769344545487, 0.30007734915555856, 0.2772809336123939, 0.24681715174325364, 0.255613831028603, 0.25220428761583535, 0.27762718090547617, 0.2827156680436848, 0.2612441991320467, 0.2490921945287712, 0.28214494057914674, 0.2912054857861336, 0.2794378444826004, 0.25622507108907977, 0.2484061029255159, 0.21890425070118336, 0.22595280877269847, 0.27081244808919375, 0.2737356536649292, 0.2867987816592342, 0.3024275470571134, 0.2771890910442034, 0.304322528467314, 0.3328310560820102, 0.34263117292892614, 0.33828767355305395, 0.3380898107489764, 0.3172536055206695, 0.3449155318519219, 0.38752579795663683, 0.4015830724796278, 0.4500625037175064, 0.4565264849017491, 0.48176015516073617, 0.47074530124907304, 0.47374564853657813, 0.4626838881475096, 0.47278039915917064, 0.46771454532646284, 0.46073354224375457, 0.46924170172536667, 0.4896415129106429, 0.49451419514971034, 0.47760517702226285, 0.470646426211634, 0.4613031371700205, 0.4925046711618252, 0.5166237667304882]",False,0.8000,0.8000,0.5000,0.1000,0.2000,0.0100,2.0000
48,go,Hit,1,0.4900,"[0.0, 0.03693391952547277, 0.034114169337788165, 0.04509487513225598, 0.0490608122208023, 0.04276159176454257, 0.06975902345472959, 0.10138785118798084, 0.13377291601999847, 0.15231873570806556, 0.1621038703014125, 0.11187630633454168, 0.15116790220377907, 0.18840147000333518, 0.19409678058963867, 0.2046129386918032, 0.19392460099148834, 0.20006018537119552, 0.19768177382364904, 0.2536973722202119, 0.2685508842412468, 0.250662809113964, 0.26446756570148566, 0.28569391638386654, 0.2887162691451512, 0.33144307707641685, 0.36013731349260714, 0.37376931876495173, 0.36422582787122976, 0.39342376055853073, 0.4143924350309168, 0.41097185641011985, 0.3953237785550465, 0.4523225132650705, 0.4690719544775857, 0.4350515197885385, 0.4771022335064609, 0.4868802993977363, 0.4877734761813522, 0.5168921281395404]",False,0.8000,0.8000,0.5000,0.1000,0.2000,0.0100,2.0000
49,go,Hit,1,0.8000,"[0.0, 0.017870594279237692, 0.03981887678861523, 0.040652430484305814, 0.044125048636326276, 0.086300961850211, 0.08131081458086838, 0.1091305043194202, 0.09188703127401161, 0.0785771407074108, 0.10105916779804325, 0.12594748250696025, 0.10904864235205138, 0.08701249870194228, 0.03440416722149507, 0.06006190446573534, 0.05321076864791807, 0.07231900964032724, 0.0640836493222606, 0.0826347762040967, 0.09387439374474359, 0.0911445946093387, 0.08920598842215983, 0.12202519016829758, 0.16717957726799823, 0.19143594931697883, 0.18789585699502573, 0.18698712880837964, 0.2166976256671402, 0.2122297093263098, 0.21975389888594013, 0.24056883065476953, 0.2470943577400231, 0.2624118840663904, 0.30256903207781444, 0.27959514013311704, 0.2545255236046515, 0.2657881124304045, 0.30185230939667074, 0.3412535656748925, 0.34363601119455933, 0.35790374213269927, 0.3866623918972588, 0.3694455810830753, 0.39126129243635477, 0.39148986306414435, 0.3931475952015367, 0.3685259835990166, 0.36506128321326753, 0.37509249807274825, 0.373813454366278, 0.3763580423069291, 0.37824685693800586, 0.3822704234317199, 0.3724640109698092, 0.36815601134059334, 0.34967499188004036, 0.3372284936761464, 0.3626521138244735, 0.36086363566124885, 0.34231220299729986, 0.34366687665790846, 0.3557977544170102, 0.4020850296787313, 0.4120865359165469, 0.4217241143822513, 0.4310572221743284, 0.432813614437135, 0.44037219516264, 0.48943544925548466, 0.559265736115093]",False,0.8000,0.8000,0.5000,0.1000,0.2000,0.0100,2.0000
50,go,Hit,1,0.4200,"[0.0, 0.013726286893793802, 0.052994060669396166, 0.06246251455074139, 0.08516082746235706, 0.10505675854856686, 0.0994714757080133, 0.10951962865039885, 0.1220914938886137, 0.1364112297516457, 0.16789670191293554, 0.18033395022339785, 0.24344732409424025, 0.29645593939937337, 0.29902092571440925, 0.3187878289841483, 0.29721924104842595, 0.3023317080423791, 0.3056978604149705, 0.36929967323140556, 0.35574930671541966, 0.36181421202240305, 0.3712461109938673, 0.3969331838904209, 0.37173626006829086, 0.3702530725710081, 0.3615639483401715, 0.4012326145399594, 0.4217933810294924, 0.4285977672299879, 0.46449243344438007, 0.48851990204114487, 0.5273684135568257]",False,0.8000,0.8000,0.5000,0.1000,0.2000,0.0100,2.0000
