trial,stimulus,outcome,choice,rt,trace,timeout,w_s,w_n,threshold_a,t,noise_std_dev,dt,max_time
0,go,Hit,1,0.8800,"[0.0, 0.002299905418579144, -0.03489759216756342, -0.04948314149063956, -0.0714602578107422, -0.07304351032789533, -0.0637720528344897, -0.06838101104332041, -0.06596113139307869, -0.11406884518588549, -0.10906916038902552, -0.09665365485278346, -0.12781563284981512, -0.1087869399186325, -0.05319212410561637, -0.06624466621893972, -0.05669878278390937, -0.056704455485846406, -0.06285274936564142, -0.05846890082003361, -0.026413445794657577, 0.0023563035871482924, 0.05095411309912166, 0.026475160772921377, 0.03354706283970263, 0.027508162899971163, 0.05835394607698401, 0.04815006650257826, 0.07175524470541811, 0.09386571994054527, 0.07579831951017729, 0.07509806893060658, 0.08655028577858102, 0.10242132493496107, 0.12819115624388341, 0.17218961012777217, 0.16309983350606505, 0.17050271760035363, 0.16765319180246083, 0.15033250436300116, 0.15756735461856863, 0.1353794855201068, 0.11889884391695923, 0.15391793645556184, 0.14325807056128098, 0.13680649496528507, 0.13843909253596465, 0.15065517419753977, 0.17429603771640206, 0.20059802469624796, 0.20526204385287497, 0.23581939217573283, 0.2242492952214312, 0.23019860475093212, 0.19259710348054795, 0.18771364205104618, 0.16424093226483513, 0.16985376473601993, 0.21890495059354195, 0.22250774978077736, 0.24235922937749937, 0.23727797387446964, 0.2550944783243335, 0.28842509068610134, 0.2886930729368363, 0.272403960739094, 0.2864558924338642, 0.30145069774177147, 0.3279021519476504, 0.3246277962201225, 0.32743457813411353, 0.36353563409063616, 0.3939126865492273, 0.37777739703571117, 0.4069242398206852, 0.4621746425576644, 0.485827759408064, 0.49119031250972284, 0.5151555043755299]",False,0.8000,0.2000,0.5000,0.1000,0.2000,0.0100,2.0000
1,go,Hit,1,0.5200,"[0.0, 0.03375565068628893, 0.06254136276767827, 0.08900200251389469, 0.11872180147005276, 0.12431760413793, 0.14233322313632424, 0.179551612032039, 0.1948405464314329, 0.19450174843134468, 0.1809871691910001, 0.185433383425926, 0.14796652141743127, 0.1449891938964199, 0.14032025401041348, 0.1278230413417329, 0.15086881173646002, 0.16174920179677102, 0.1612944047500284, 0.18492001307163405, 0.19607332429774088, 0.21231519639704716, 0.20737840371732902, 0.20501107122673418, 0.21537425673824656, 0.24585346454513932, 0.2575829155730745, 0.31792024120740375, 0.34697273177498095, 0.3689836683736715, 0.35515068030150765, 0.3650395161931265, 0.380033059574955, 0.40160934631081935, 0.38328817324032416, 0.43643897196890147, 0.45752016005880075, 0.4614973693910585, 0.4907478328031394, 0.48303484832250887, 0.456169506237764, 0.45439860784920805, 0.5051642737145043]",False,0.8000,0.2000,0.5000,0.1000,0.2000,0.0100,2.0000
2,go,Hit,1,0.8100,"[0.0, -0.006426567882041233, -0.010683808400483255, -0.00895088235133703, -0.005325763733868931, -0.001778833422269815, 0.023155825008616883, 0.008212338003243353, 0.028378626896812198, 0.043658116393571554, 0.06689722968346486, 0.08296792676432749, 0.09830716866553933, 0.11465989755725811, 0.12141527913295014, 0.13477343293077482, 0.1714030118868542, 0.17059864331544924, 0.16449367561037123, 0.14936893581884994, 0.14313388818787287, 0.1905597208146535, 0.19494592813208722, 0.1848153299711764, 0.1865708046902175, 0.18386081733393506, 0.21805658853407403, 0.21557455959724744, 0.21865991755196437, 0.23498681198350702, 0.2602308934339498, 0.2833560717164893, 0.2816974601075055, 0.3215899179662936, 0.34307965549457, 0.3341491216119877, 0.31199071361334285, 0.3097219266123081, 0.3114040030875291, 0.28763266640908675, 0.28391775527975976, 0.2881418935490778, 0.26148039832784126, 0.28284278792044304, 0.2856047086460134, 0.29959914055689607, 0.27719871660677875, 0.2997997351448659, 0.28364235331337445, 0.2800180992428768, 0.3038869666990612, 0.3359962193893407, 0.31889499491017537, 0.32351074866238216, 0.31511683223948483, 0.3066726555659859, 0.3137270146425233, 0.34797001841761593, 0.39055516883901437, 0.38833388089148363, 0.4074559292802563, 0.40885743293305843, 0.41688795266471784, 0.4545161085110298, 0.48976996422072583, 0.4486661175282556, 0.43496746972357153, 0.42759087614358193, 0.43792872655491694, 0.4570755603834201, 0.49638117914661156, 0.5245281328844181]",False,0.8000,0.2000,0.5000,0.1000,0.2000,0.0100,2.0000
3,nogo,Correct Rejection,0,2.0000,"[0.0, 0.029415501751489184, 0.00639019574896367, -0.031978304794581774, -0.05130984281101205, -0.0171431199638672, -0.01004751197960552, -0.015445138799662793, -0.02927021276414779, -0.017327042099036107, -0.006955831168613811, -0.0005326580375534015, 0.004162269641206352, 0.018450547425196865, 0.03823374730910099, 0.060403188496869965, 0.08682586964685828, 0.08094552372313212, 0.06192642203968152, 0.052536808212059846, 0.04520463762738931, 0.030939305298728122, 0.06347926758815141, 0.06089338941146307, 0.09517103921508474, 0.09450547164075519, 0.06820509368707828, 0.04773070621545457, 0.03799024132178077, 0.0417321675861927, 0.02983556918601521, 0.03331968904213142, 0.03780583174242377, 0.07603358818701149, 0.08029351249765442, 0.0793290002222222, 0.06370725322111626, 0.05580909074070148, 0.04334122089592854, 0.05759445504551169, 0.06041529514308021, 0.05492642051151398, 0.05262343231393084, 0.07533351538708483, 0.12554617151529696, 0.13334090799488424, 0.13762344983000704, 0.1282723784309357, 0.10720143956780508, 0.08680508673519395, 0.09203451811723273, 0.08532307323172611, 0.058156845899985515, 0.06152889725689878, 0.043988050480726244, 0.055841591840190934, 0.007331798506513908, 0.014726824298117629, -0.012601524366321318, -0.02998766738737775, -0.07664734333022882, -0.06558658896609171, -0.02588427596221679, -0.026103573057810293, -0.0396915775742574, -0.049166721740963495, -0.05115163283544522, -0.04663388553195529, -0.035448704806634576, -0.03375561552287498, -0.032865653888616286, -0.07055841899410989, -0.07406512035134297, -0.07265926242734916, -0.08523845379588534, -0.07693484774288005, -0.10362151008134378, -0.13090596658264686, -0.20860043407864054, -0.2019642663779794, -0.22087596634870518, -0.259430373067058, -0.24119188763748864, -0.2424636808535906, -0.22224064066790852, -0.2297210484309798, -0.19832504626433162, -0.17563010258661538, -0.17330829341666912, -0.18476060977659547, -0.19581877651361282, -0.18597872102864293, -0.1927503798457947, -0.19257558484448936, -0.20233724531632336, -0.23294729177071227, -0.19891862972258798, -0.20062382082939406, -0.21760701522092324, -0.18437140270952165, -0.1680184915631672, -0.18128472919030983, -0.18098999446947844, -0.17458870779816368, -0.18592584336796628, -0.19804487456478825, -0.16152070333450555, -0.18407591132667894, -0.20070181554463412, -0.20216458853629116, -0.17362598914896898, -0.1847605870377648, -0.21036365468504623, -0.1994904728227635, -0.19868309513747012, -0.18489460023177506, -0.19809222121294018, -0.20059550908933296, -0.18958279145267481, -0.20192373519436688, -0.23176489752442717, -0.22900639790828958, -0.2497120411399485, -0.2571513355625882, -0.2616264889841903, -0.27145819483996453, -0.26894279482503053, -0.27202079612027735, -0.22303067536606713, -0.21271257109199967, -0.2421641184939626, -0.22864100604172444, -0.2368419344063957, -0.2500665579679579, -0.24822621301247416, -0.24906354463250488, -0.23138348310374754, -0.2510786160529181, -0.23574421786706248, -0.22443358048582704, -0.2007952355180004, -0.18971141590833962, -0.20935832106340016, -0.18789426613450988, -0.18984928492488146, -0.17227381190212115, -0.17208663171325778, -0.1517789835347223, -0.13083005718224583, -0.13284154416696012, -0.15572129809681168, -0.18446474919705438, -0.18833483088684555, -0.21067213789949063, -0.2342410865892788, -0.2209517842209473, -0.20270152800391267, -0.17755021527629666, -0.1944293533733338, -0.1959057284799493, -0.18415822370085283, -0.18149088050143197, -0.19040457428847382, -0.184984852538618, -0.13247565481506385, -0.12017712933907136, -0.14417305571057024, -0.11267401195626559, -0.14316667947224215, -0.16579969653131302, -0.2054622154575525, -0.21605187012535004, -0.20004887821990894, -0.17865961408661163, -0.18740445503389383, -0.16252197502471458, -0.16633878263047108, -0.16258240086036654, -0.17690121809343146, -0.1869850134072137, -0.154982822260911, -0.14644662225251537, -0.13518770857888035, -0.15178652934276946, -0.1358435222065094, -0.1592659823526682, -0.16969209443574185, -0.12766382013280905, -0.13770545217431843, -0.1450917608794281, -0.13814841358136]",True,0.8000,0.2000,0.5000,0.1000,0.2000,0.0100,2.0000
4,go,Hit,1,0.4400,"[0.0, 0.007173017524141056, 0.033629051156342585, 0.04297962827423646, 0.06977532985956202, 0.05648471309083017, 0.02894252722022842, 0.04098377132781007, 0.021370744192753064, 0.013799559689457255, 0.06731417422698091, 0.0415111894318382, 0.09721822288810364, 0.13305645737625116, 0.13839565348153976, 0.15537838684474153, 0.14381247064821973, 0.19870971017570077, 0.18659657726369985, 0.20187948324963811, 0.1886194019143807, 0.19957304908967466, 0.20930256747714515, 0.2301422028488253, 0.21617469015573967, 0.2291669612904806, 0.23955434467206504, 0.2611122230184299, 0.3106249584084047, 0.3358145478559433, 0.36244027965498704, 0.39798120050743147, 0.4308267416893562, 0.4637843053165253, 0.5071919763430834]",False,0.8000,0.2000,0.5000,0.1000,0.2000,0.0100,2.0000
5,go,Hit,1,0.6000,"[0.0, 0.025871527757505453, 0.030195637442771126, 0.05218806496479585, 0.03865527732999625, 0.019618920301411383, 0.045525703984209076, 0.07524712506074341, 0.10164113186108599, 0.10444887204842127, 0.1316035984097534, 0.1281689959432761, 0.134085926325613, 0.1840721850664448, 0.19505401098063496, 0.20524126392798753, 0.24421086935095193, 0.24252557569268585, 0.2502399948497751, 0.24708301260267315, 0.28235624525295, 0.2549638273047265, 0.2693611491733028, 0.2990916343547979, 0.2878438840686383, 0.3175664101584265, 0.2946911602538917, 0.3570340697399813, 0.3938552328387813, 0.4171654982959297, 0.4254371998009735, 0.43652028576662466, 0.4610401894692694, 0.47675192464466376, 0.4760421447298456, 0.4671249841450953, 0.45597040340956957, 0.4483431559904213, 0.4671789388162971, 0.44738136918884647, 0.4458109547866539, 0.46975218749326253, 0.48945442528512795, 0.4865970197179078, 0.48488357809824534, 0.47309673122698986, 0.4663775704362078, 0.45982399499593046, 0.47790294818734885, 0.482365399620404, 0.5079147007575271]",False,0.8000,0.2000,0.5000,0.1000,0.2000,0.0100,2.0000
6,nogo,Correct Rejection,0,2.0000,"[0.0, -0.0023705629089472834, 0.02689945219274876, -0.002032505775313196, -0.04999450678099336, -0.07852291388883234, -0.06432887233652579, -0.047909750256610054, -0.06555347153124308, -0.08775990110747912, -0.10875416675308558, -0.1447044778965453, -0.1227029095752912, -0.12078257914549999, -0.09784343062345582, -0.10163960941633096, -0.10589146530212934, -0.09261208440117917, -0.0803055189778973, -0.06113189797469376, -0.07143919449568667, -0.08919171746505081, -0.08325166998483127, -0.06744204815173349, -0.057060605978601686, -0.05279760431474062, -0.06716499600469444, -0.07305379501462653, -0.09124698549601214, -0.09045675341802878, -0.1236217504594863, -0.08769461093082902, -0.09413325238594217, -0.05899447516138321, -0.047788536198774934, -0.05882917030795122, -0.06319378617942616, -0.05796321798300254, -0.04085352335749162, -0.04393411706840517, -0.08096394596843026, -0.06569594511328039, -0.04686216041552592, -0.07769321001028434, -0.032127368120804516, -0.06624025439259734, -0.03001878743160466, -0.017821318193267467, 0.006187167692819098, -0.03910481432182007, -0.05892715245908557, -0.042199616717502136, -0.06417662547852968, -0.04674278581684238, -0.04537275557266156, -0.04903432948802757, -0.07530297867857935, -0.06785115602274897, -0.0725536871401468, -0.03416341268058287, -0.03349504594921963, -0.026382788783670893, -0.038894413392389304, -0.05780421370320954, -0.061136937795090704, -0.06420986819459401, -0.04574629232312563, -0.0296551794389783, -0.019968352677981797, -0.014021229051313894, -0.017513258022067525, -0.03719489776109418, -0.03996515409077467, -0.06394432221421266, -0.04694553187263015, -0.03905077524807025, -0.028200160966339618, -0.006300842149696086, -0.021816008771943448, -0.011445475577494518, -0.010418778189674042, -0.035019650248943594, -0.02920425230316425, -0.014019608370408377, 0.005476296539507285, 0.017137048593007596, 0.023642548918928745, 0.06226316522247903, 0.03667536834565043, 0.037248533144060805, 0.056458822850975254, 0.04927997426416435, 0.059770780884673566, 0.06902316180927014, 0.0778227114354698, 0.08643169828125939, 0.08413050191456081, 0.07562835349498408, 0.0888767235472548, 0.08278107009013402, 0.08509630579036893, 0.08100045415913523, 0.0828065035044732, 0.0561135601912104, 0.0667657887873587, 0.04285753709953133, 0.039911980163451245, 0.03532097765612519, -0.006331771018222139, -0.001244148538745632, -0.011201897635941137, -0.015141512695810957, 0.013704216940684345, -0.0008143781005867066, 0.011473424802686144, -0.0012311876109281725, -0.010099871880114873, -0.01845465754586502, -0.015286420866473197, -0.007391354693966703, -0.023742989784727633, -0.06972460520051776, -0.09210168497986908, -0.06735541772395354, -0.06634287507466359, -0.06405578846274672, -0.04434445462745777, -0.05757738642070982, -0.07280673208479878, -0.07677316116317716, -0.060940345749671436, -0.07352376502522953, -0.09206114840600275, -0.09393043213537985, -0.052801795041464566, -0.06796418269029447, -0.07643285983746141, -0.06087856764396571, -0.07432960253907961, -0.08970894110666465, -0.14695021416385384, -0.1529358488746746, -0.12520008643921757, -0.13759553621191004, -0.1329091249232435, -0.13671032901307226, -0.11900431682032814, -0.16147736050521794, -0.14357210040759033, -0.1176412988997057, -0.10395029737374478, -0.0822798613931604, -0.08171804943231507, -0.10343042682302017, -0.06989679379111785, -0.041071183111109036, -0.054398846421531824, -0.0505426903274315, -0.028077561785856655, -0.03217333233211243, 0.005452128916832895, 0.010809845817928111, 0.03025304516772201, 0.01229960564895384, -0.0125699806934674, -0.013749629446736494, -0.02052319701207865, -0.028167246090619658, -0.054859055380882316, -0.09488710219919796, -0.041642738066746406, -0.031151496320037927, -0.07563993711974401, -0.10924717808725677, -0.11396070298134629, -0.10090061343254794, -0.10697304983114428, -0.11592818400711487, -0.1316378455179052, -0.10900479767084487, -0.11264141762260851, -0.11502247544026213, -0.10891782020678736, -0.09454743680853891, -0.07584917211249334, -0.07955335022961968, -0.030693671176281828, -0.015882259185656184, -0.008524603176196487, 0.011173641698085074, -0.005326480290446169]",True,0.8000,0.2000,0.5000,0.1000,0.2000,0.0100,2.0000
7,go,Hit,1,0.4500,"[0.0, 0.06191027152957403, 0.07978779526145846, 0.06459565565657835, 0.08198651288329752, 0.10444468289366135, 0.1332755876821392, 0.09389291045297542, 0.0927683316883113, 0.10141397210246568, 0.13655894937315113, 0.1349361105999608, 0.11749811599809158, 0.16448964973181607, 0.1885260151140753, 0.18793811437942787, 0.15339410388649188, 0.17633500000246746, 0.21080955279723573, 0.2877882824006782, 0.3017986312253772, 0.3245964043361386, 0.31849721973669765, 0.35839706740417604, 0.35224050785901484, 0.35492044734384814, 0.3662330060260666, 0.3523588887132505, 0.36638525701763064, 0.3882280035732877, 0.40715180936856993, 0.43597444065994123, 0.4405428289779418, 0.47383814164964483, 0.4626523158188849, 0.5008284576702015]",False,0.8000,0.2000,0.5000,0.1000,0.2000,0.0100,2.0000
8,go,Hit,1,0.6800,"[0.0, 0.009359490160352877, 0.01656262171429879, 0.030106523481390677, 0.04592464065448454, 0.06885530497337385, 0.14042856670661086, 0.1533972562289057, 0.167538675376402, 0.2015511686387671, 0.22641145835200477, 0.20130944213028873, 0.230177234139788, 0.2331529443205767, 0.2450900492135015, 0.2271019648807303, 0.2593058625380771, 0.24976208299776054, 0.26632803816661416, 0.26853914947047536, 0.2892977186619947, 0.3021666752669718, 0.29760842831730216, 0.253502921330019, 0.23242737525858645, 0.21852741448652735, 0.2324331972739608, 0.2188674400214304, 0.26695423671907015, 0.26403946051143995, 0.3072255520220274, 0.31758416779831855, 0.31950292564903854, 0.3441705222667433, 0.3544609992791175, 0.34480832420186613, 0.3771255962291573, 0.3821889338407962, 0.3777996984578454, 0.3884249662667867, 0.4008671967564364, 0.4276923449200517, 0.4283041170178397, 0.42342943345759754, 0.4334041867767294, 0.4332287171583957, 0.4202254034436601, 0.45226913497426335, 0.4383455717692202, 0.4337535625743548, 0.492618355172953, 0.4847537905931112, 0.49083546742056694, 0.47804613358672776, 0.46563090149010605, 0.4636512011603677, 0.493860839778228, 0.49816232147990536, 0.5227574565248052]",False,0.8000,0.2000,0.5000,0.1000,0.2000,0.0100,2.0000
9,go,Hit,1,0.5500,"[0.0, -0.004992097055796264, 0.009343045772757219, 0.016265898504633343, 0.010436315326907768, 0.05768826766315628, 0.03973487630677558, 0.06097065684691995, 0.11042547743139788, 0.09835799077095227, 0.1181163838642554, 0.13064113334675054, 0.14906073095947797, 0.17329739012426926, 0.18048837102801246, 0.1600036215851281, 0.17485281920065948, 0.19453146627044107, 0.2536511757537713, 0.26408225106022803, 0.2827719662649121, 0.3140661895872531, 0.31741475607705144, 0.3060910074359875, 0.2950343917881805, 0.3041730389365011, 0.3059693268116582, 0.3197585202906814, 0.3272579651722023, 0.3350959330374879, 0.34167188902401585, 0.33032194804834625, 0.3383198548423681, 0.36324909212051276, 0.3806162538275888, 0.3999071233318544, 0.4492655486918779, 0.44056578782274125, 0.4557499935235151, 0.46945353757339214, 0.470649664358786, 0.48442924886425714, 0.49819008339941895, 0.49574949095302645, 0.4905762605045495, 0.5118533288179431]",False,0.8000,0.2000,0.5000,0.1000,0.2000,0.0100,2.0000
10,nogo,Correct Rejection,0,2.0000,"[0.0, -0.013895072644408394, -0.013913779197781783, -0.01963543747642358, -0.027917354260260378, -0.046403658551447666, -0.06089574351055649, -0.09213426422055165, -0.12166259516655066, -0.11017924798637073, -0.10631812203240135, -0.10904339254668902, -0.1190212078458243, -0.12398471146888833, -0.13547724896816024, -0.13230408090148263, -0.14866127713283347, -0.15518403669745776, -0.1554660323282164, -0.13691517052594598, -0.17332836600247575, -0.16944882752985266, -0.1832467971868041, -0.19162387295001046, -0.2322113240875836, -0.24535619619468427, -0.27002573401683927, -0.24993276770359807, -0.24154788131737828, -0.25260810406593626, -0.24168266230102978, -0.2397249831213093, -0.24674034403426254, -0.2508652413745372, -0.22980238545229303, -0.19919730276099562, -0.21051480978648254, -0.24150772435003176, -0.22317837580739416, -0.21587393562001128, -0.2085817534533495, -0.23016070455361637, -0.24196538327230407, -0.25952808432787206, -0.26954535373969435, -0.25961524953017573, -0.2879636409803233, -0.2917929583366797, -0.3162875994661157, -0.2919253845469486, -0.27091481839969384, -0.2558985798289912, -0.23505310152340725, -0.21568567629882915, -0.23535017344291326, -0.2053635047904214, -0.22225840598158222, -0.21600796092571914, -0.19633449003252385, -0.2266674416253873, -0.22513648334427372, -0.224417933464928, -0.20659713443019906, -0.22506311978285476, -0.19759074114237005, -0.23873600496784173, -0.2533501145638377, -0.2821382927192821, -0.2620122679511899, -0.27521766524763597, -0.28790490556277504, -0.2764648330880728, -0.2604044974047804, -0.2747487500156705, -0.2977036234588352, -0.29749587987165965, -0.29338043111811773, -0.3172683344808607, -0.3278613286578256, -0.3353153293658747, -0.3290596668766705, -0.3266183172086095, -0.337060095826442, -0.322036797507024, -0.3422209567251772, -0.34806619811949996, -0.3800349602815329, -0.37244414672554627, -0.3562861487658435, -0.3585055121474452, -0.3723734394744535, -0.4293613968751778, -0.41230504834991266, -0.407987444744207, -0.4118016615428781, -0.4094504040515479, -0.42483596323988315, -0.4279318438143491, -0.4142040051810635, -0.37063462208993897, -0.35223694551406604, -0.35968795941932713, -0.380178747444463, -0.36248652964975, -0.40235470423704006, -0.37001771492322066, -0.3546574910289037, -0.3715768241691864, -0.3612172415495237, -0.35931420723424823, -0.3646612192669891, -0.38660307133157273, -0.3841164788229783, -0.384111767715287, -0.37543830625301877, -0.3452113733919593, -0.3206955069653029, -0.3478871592831372, -0.34679656797803166, -0.35196807414570835, -0.3471089893387373, -0.34146388609158324, -0.357313259638701, -0.3629428965861938, -0.3722059793824142, -0.37757191299409537, -0.37697385095092845, -0.36794105016056905, -0.3929344093363353, -0.4292218922830353, -0.42526864020530797, -0.40199552300279817, -0.37535575940800775, -0.3444785967703823, -0.3503360313689179, -0.3875812471052099, -0.35467947224437374, -0.3491400830183902, -0.372111194997908, -0.388568752885897, -0.36943850930298605, -0.3975050610491268, -0.4168341566671547, -0.4272895019880038, -0.40916182337358864, -0.4242780794891344, -0.43721500788476597, -0.42441967322953433, -0.4426560777702429, -0.4433927420530255, -0.4330350297875159, -0.45527093432877747, -0.4753758287433359, -0.4887454285484339, -0.5044911426052023, -0.5053729370259545, -0.493685981720499, -0.48217496141860305, -0.44666351788494124, -0.4617606503931473, -0.4715484897060542, -0.4702920355283452, -0.46437005051695845, -0.4785609991909914, -0.4625211971801287, -0.5054120354599877, -0.5125061621875491, -0.5075930074325997, -0.5022624024735605, -0.49334985339061976, -0.48754450859954557, -0.4718917324079032, -0.444551681895813, -0.4364818756712231, -0.4296570488670874, -0.4139513920240917, -0.4100312210727527, -0.42355352837781274, -0.4332213137518831, -0.408874535225011, -0.3978387026824632, -0.402595274754293, -0.3702099876190067, -0.4005467187947278, -0.39076281070707597, -0.3846329347228539, -0.37422751138583926, -0.398008679871161, -0.3961570614778738, -0.4226040650930647, -0.4363186253714886]",True,0.8000,0.2000,0.5000,0.1000,0.2000,0.0100,2.0000
11,go,Hit,1,0.7000,"[0.0, 0.027293223336810616, 0.013789552601664382, 0.019446676609601372, 0.031394691469574715, 0.07279015830269787, 0.062553691428002, 0.09197145441736837, 0.10593227528875337, 0.11987744193755179, 0.10502139417567752, 0.12671693100680614, 0.15865194776459934, 0.1447627854502569, 0.16728831400100194, 0.18977409696386255, 0.21443857744826572, 0.23804419210824795, 0.22184601291283626, 0.24170512501842076, 0.23143839560123955, 0.25985467217371233, 0.2540788983236808, 0.2830638291563694, 0.27261372619781815, 0.2923017575852255, 0.2638353135544114, 0.26613774577818666, 0.2731075594285128, 0.2588385748683565, 0.27842765309116, 0.2801294163971074, 0.2857901287813141, 0.28285298764962247, 0.26987304927002215, 0.2953176013826683, 0.31718613547719615, 0.31099511056321744, 0.3240818638836535, 0.3592594469238062, 0.34825537793819783, 0.3427395653322869, 0.3779543048770049, 0.3550528179583686, 0.348292309682803, 0.3509110266879552, 0.38467756952452115, 0.3983151082410391, 0.3920365115909592, 0.3776891092015498, 0.4088113159579568, 0.4257436625976756, 0.440333994310469, 0.41836900328810955, 0.4334167489241618, 0.4332524890988347, 0.44411557409835484, 0.4704467447109116, 0.4633927955446999, 0.4682372003003704, 0.5145142740476056]",False,0.8000,0.2000,0.5000,0.1000,0.2000,0.0100,2.0000
12,go,Hit,1,0.9100,"[0.0, 0.0238484816613858, 0.009416400137051917, 0.024878006607438028, -0.0040126329428220135, 0.031832479044061765, 0.04387061027155602, 0.05483663708002104, 0.05312887300654152, 0.08833871016605421, 0.0688422384845531, 0.09255346385440723, 0.07475551634158487, 0.0822689563333586, 0.08640222214466887, 0.08278466455141188, 0.10969912600245671, 0.10025974558579837, 0.0995784914554596, 0.13089962154846915, 0.12758202514549977, 0.1342445824430148, 0.11689061560915356, 0.09831124327731078, 0.10945806640877384, 0.1107746046583647, 0.07691210986491734, 0.0708186385332125, 0.08192704112104568, 0.07079217840336964, 0.14479920088860665, 0.1888410700138417, 0.19472283523077066, 0.1857345496771716, 0.19412288510589648, 0.20023320043083775, 0.17355939149648628, 0.20052476798603136, 0.17330733035006646, 0.1952948610254448, 0.17663930715187393, 0.17112818381612327, 0.17055709484796489, 0.16691774441150412, 0.14645705139766563, 0.14098445913120555, 0.12238036497167107, 0.10469045212641467, 0.1056265010786425, 0.12046337899029438, 0.14415977693335885, 0.16860117361696436, 0.17771741518752082, 0.2062430116473855, 0.21773202905087144, 0.2514586958024281, 0.2869705764676567, 0.2827069904226077, 0.2928441039316234, 0.2850530845588786, 0.30009809501540474, 0.32310846205342547, 0.32987638193651897, 0.3362463399846288, 0.3515383915989754, 0.33078406116042464, 0.3239098123249803, 0.3233760241253658, 0.3409741095140486, 0.39054968543825214, 0.41785343552562243, 0.3987728679375871, 0.3835239629158744, 0.3844119347270604, 0.39752788915128284, 0.4086989996637061, 0.4494661941585271, 0.44613101366618524, 0.43666977200115487, 0.4445414869839085, 0.4878002503127681, 0.5293395092145967]",False,0.8000,0.2000,0.5000,0.1000,0.2000,0.0100,2.0000
13,go,Hit,1,0.8800,"[0.0, -0.022270592446353262, -0.05026030635751322, -0.04835483358533092, -0.05265176430702959, -0.06200510821593681, -0.04356057797896638, -0.02669187780636803, 0.00841564130391484, 0.012340272076225546, 0.017887133192820436, 0.02050717744250509, 0.010666676565941311, 0.008896962997459486, 0.024859693702005747, 0.01961580848436023, 0.02783413920479519, 0.06340950008469073, 0.08837736721481372, 0.09476562254279511, 0.112041300030993, 0.13844120384050115, 0.15798640167386246, 0.17540831382480737, 0.16739244742235454, 0.18756412736402212, 0.1878614785945841, 0.1746243184706618, 0.16158261367698973, 0.16811002052977744, 0.15219726218253618, 0.1592763307382542, 0.1756894944082548, 0.19946795997296762, 0.24298352301563328, 0.2252907236755351, 0.20847367545765322, 0.1743246830622615, 0.21658548422712603, 0.2429663918964162, 0.25497056353567754, 0.25632208991333394, 0.2773564180819844, 0.2891705384602725, 0.3254844631428351, 0.3696106451262285, 0.3786304165213422, 0.3799194136725383, 0.3720850581797284, 0.34266896962944277, 0.3887268171416339, 0.39240215503338843, 0.3865954544452362, 0.41033783262318557, 0.411044790889899, 0.3929828577444045, 0.37312644650247245, 0.3664026734902617, 0.38156376176613693, 0.3900273008729065, 0.3901930666733102, 0.4290979731584716, 0.41975053941711754, 0.4193892371445544, 0.4225728249549845, 0.4286176683682676, 0.44604535611097484, 0.4572489065316671, 0.45566005562881207, 0.4653330955631716, 0.4703617850117476, 0.45020002886724486, 0.46429770384630764, 0.46002640623257474, 0.46203454568811836, 0.4320264174564257, 0.4569059917476099, 0.467887302960513, 0.5057998176131999]",False,0.8000,0.2000,0.5000,0.1000,0.2000,0.0100,2.0000
14,nogo,False Alarm,1,1.9600,"[0.0, -0.002907526259865606, -0.014168530699643179, 0.00028447726711972737, 0.011711651965613492, 0.011307766321484544, -0.010338199093930477, 0.006412014235893215, 0.05947045582712634, 0.07013628569084435, 0.07276373770337322, 0.09091523358800624, 0.05665285782279646, 0.023826686983517815, 0.03377082565447661, 0.07990119426129558, 0.06004826776878942, 0.04033118826194053, 0.039561474498738945, 0.07053203325790355, 0.060035218699613244, 0.041261644950281756, 0.037321066414599605, 0.04160380851480575, 0.046229968453135664, 0.02940425053579763, -0.013134897712505873, -0.03124950095227992, -0.03611646089700973, -0.028073659089627223, -0.021317008891822715, -0.05955816382186083, -0.04830604156237284, -0.06175881438220876, -0.03452075193796751, -0.03255267380455603, -0.03147080559006524, -0.037692542639829435, -0.025059339664381626, -0.0199424224087634, -0.008693135198083232, -0.015229835264298358, 0.002409965467121692, 0.026201009360960276, 0.00935942055511842, 0.021810383398613825, 0.012678816307554266, 0.004401244538946761, 0.04583553660250724, 0.056334556384648335, 0.05322079165023082, 0.09171468927079968, 0.10444474569883089, 0.14224510814743083, 0.1589329113094844, 0.16917634215791383, 0.15211141972892922, 0.15902523266553548, 0.13559383464600674, 0.14447877859087993, 0.15685872137636472, 0.15429892715689458, 0.1383140311274163, 0.14349725752781528, 0.1585751835019121, 0.1453433216565879, 0.13706876208685298, 0.15488545737551496, 0.17481629201173088, 0.18199731345681253, 0.17188332317788613, 0.16578404952368875, 0.17673828447814688, 0.17745897898703147, 0.14582789524440137, 0.12905227948854334, 0.1402998971472099, 0.14767087024200123, 0.14886208800043163, 0.13340609973006173, 0.13761204018089898, 0.1243424508567172, 0.11110416183495049, 0.06923779273946276, 0.06711915416292917, 0.12650314760115333, 0.11242082638256584, 0.126228067361479, 0.14883801905835994, 0.14076112912290858, 0.16292192016880122, 0.16802635337559996, 0.1992599850494741, 0.23277713656089868, 0.20784255950738126, 0.21409519622035386, 0.1924544945543854, 0.22928108435472444, 0.22085599188313995, 0.21312967135286398, 0.22171110600720012, 0.21095683749494387, 0.2498967274731392, 0.2686867707738596, 0.2677851984872395, 0.23481915917660257, 0.24290257875417198, 0.24918569788062947, 0.2730021535558213, 0.25615222954453204, 0.2568956442471587, 0.25379763798914884, 0.2960097785593783, 0.26033774101427687, 0.28158191285014617, 0.3354959148841809, 0.2998031188344169, 0.3103244450322074, 0.29580582078224804, 0.3186098284194171, 0.33526223164723606, 0.3584137994459187, 0.34532679197555755, 0.3517022835403655, 0.35915749440326217, 0.35500210551536915, 0.3507335923926533, 0.321860675543867, 0.31109693100794295, 0.3349339237176487, 0.3084424295739486, 0.3338744765123681, 0.35843470532968924, 0.32536397756783947, 0.30934905405007584, 0.32600082913128525, 0.3224258476397683, 0.3459995783585807, 0.3849525401612575, 0.3821843346217493, 0.3961022125432836, 0.4121768750098376, 0.41567199378970204, 0.43499841117155363, 0.4506991279715839, 0.4696360833497811, 0.4942196179649073, 0.4878074552886984, 0.4662658089687341, 0.4861493399474831, 0.4728930371433793, 0.4495153697311163, 0.439446723298636, 0.44704822129589156, 0.4791305108922002, 0.45993827961839256, 0.45388873353064485, 0.46274741109065, 0.4325976174809049, 0.40294096739882507, 0.3927785186228806, 0.3867991754297899, 0.4153425301541867, 0.40955856948180763, 0.4174056386992282, 0.43028679032723277, 0.47119432806978634, 0.44193730327207925, 0.4469926041339925, 0.43067287250265257, 0.4325809371071666, 0.4478577309260726, 0.4444200780585802, 0.4587040891688906, 0.4710978450364536, 0.48352375992207913, 0.48944608461597927, 0.47175483688704034, 0.44060896059367927, 0.4489950284904773, 0.4476954064253652, 0.4602784615890996, 0.4812519009638713, 0.48165572840147264, 0.46336332569614136, 0.4875949855263631, 0.5202695211500649]",False,0.8000,0.2000,0.5000,0.1000,0.2000,0.0100,2.0000
15,go,Hit,1,0.6300,"[0.0, 0.0071354685964994105, 0.028910946007862707, 0.03761934517017062, 0.031186281433235548, 0.05802691281097962, 0.04474748756790152, 0.03544440016806914, 0.04012576231139467, 0.03171907091985572, 0.0601069070511351, 0.06968939171414154, 0.0399735266667098, 0.041684521949140144, 0.0852602350668177, 0.08942081894579888, 0.11617997285800533, 0.11842266905218594, 0.12973150254756755, 0.15157192375405343, 0.15544625540092954, 0.18697986539281422, 0.20821353712267424, 0.22935220904832543, 0.1924828307489775, 0.18542860320425614, 0.16858334904174335, 0.1746225864516283, 0.16338545894549916, 0.18924677227761022, 0.22046507373506388, 0.21027197816236876, 0.2211090359742769, 0.25995356691486704, 0.2529312260045401, 0.26076714907185816, 0.28203074214251234, 0.2999915026525655, 0.2798961835398915, 0.2701083351655266, 0.3003545690271414, 0.31954974303977235, 0.3264680351836507, 0.3555349695925606, 0.37482798565278463, 0.38603071532710304, 0.38028131938863835, 0.3780477557239074, 0.4277290957632497, 0.4429359976200357, 0.4312652533033814, 0.46602456526317937, 0.48737710748339336, 0.5058942186513145]",False,0.8000,0.2000,0.5000,0.1000,0.2000,0.0100,2.0000
16,go,Hit,1,0.5500,"[0.0, 0.010254312830254679, 0.04740621173077802, 0.08301124058114695, 0.10729207608830205, 0.11128758641646663, 0.12467234819113493, 0.1274428084058838, 0.1665641287680894, 0.148055781397369, 0.15743365884938343, 0.17157097434890192, 0.18988383624262384, 0.1975689537341935, 0.21961195885528287, 0.22437097906314765, 0.27017832532342323, 0.2963623864816105, 0.3125073283522638, 0.30588593728777835, 0.2902827051650664, 0.31290199020334, 0.34620315140506225, 0.3320392406144155, 0.36548397360647744, 0.3641557966330346, 0.35351944801225976, 0.33064610770670444, 0.3472835272844268, 0.3410467007360322, 0.32654031264271904, 0.33735608066499134, 0.31237350226941374, 0.30099868014230546, 0.32341277217575526, 0.31222711615388404, 0.3366972324079262, 0.35319472818764014, 0.3458791857724195, 0.3521162787195404, 0.40623491436312187, 0.40095519861458095, 0.43887356446840214, 0.4724283821222183, 0.4683422985677149, 0.5048222603654509]",False,0.8000,0.2000,0.5000,0.1000,0.2000,0.0100,2.0000
17,go,Hit,1,0.7300,"[0.0, -0.009466705541124346, 0.0018776390451473654, -0.024144218222015595, -0.020080743837998086, 0.0009676748942887871, 0.004614512530274918, -0.018469470251112566, -0.001464695197138887, -0.007384675377865848, -0.0331972730476135, -0.026384643058023783, -0.003064072519600107, 0.006457256182338047, 0.02479084510434098, 0.031820518005422266, 0.03960165603657147, 0.05370508754323344, 0.06949700597853657, 0.08404501614006835, 0.09643503183518748, 0.10322823264660777, 0.12002892576012844, 0.1581812222326485, 0.1511567786651633, 0.18141212730832532, 0.18668097317326876, 0.18696083685837991, 0.21860754983550695, 0.2276869122078609, 0.22709066491576874, 0.24936854918512455, 0.24720869617038405, 0.22547674007599383, 0.25554195605623903, 0.25358970171686324, 0.2961425306993374, 0.3052497157198237, 0.3143687180600524, 0.3294084559293852, 0.35358038199479075, 0.37585451756376553, 0.3554836943864252, 0.36233085712758156, 0.3645259655599223, 0.37933437980542856, 0.39831655983049086, 0.3926293354416772, 0.3797452103412956, 0.39695371407070934, 0.4135008874077381, 0.41454295136211206, 0.43406655060000215, 0.43463861432338136, 0.4408409568374784, 0.4500871203467866, 0.4448848034194347, 0.4606901385131609, 0.4674205446787696, 0.46672969679459014, 0.4663312090561681, 0.4831380629002578, 0.4958905360960533, 0.5015154808901231]",False,0.8000,0.2000,0.5000,0.1000,0.2000,0.0100,2.0000
18,go,Hit,1,0.6100,"[0.0, 0.003123838402052155, 0.014761343546027973, 0.021208929279740316, 0.005243250754813505, 0.022495041892143613, 0.021663876545614323, 0.07045077795631968, 0.10581303631360554, 0.09695892191018769, 0.10712353058422351, 0.1293907713535917, 0.14255655716889276, 0.13591325556985462, 0.14529618234138503, 0.15107003923057255, 0.18255563175451944, 0.18138885386305162, 0.17569656005917608, 0.18373818819780335, 0.15899381690640937, 0.1450436570291329, 0.14523575757025098, 0.17140479733719094, 0.18595763063108656, 0.2145871673691812, 0.2127871726652188, 0.2508258765170184, 0.2704657307257256, 0.2764432796392938, 0.25835486318300344, 0.2602269803337674, 0.297206748438151, 0.28991168233598386, 0.3070872367584877, 0.3146926424205702, 0.36201042817371576, 0.36830585841715213, 0.3835776813716762, 0.38501289827712887, 0.42376404476922913, 0.4329269465133912, 0.42816064841606877, 0.3943206110370859, 0.3797457105025612, 0.3990400958121931, 0.42245065008394284, 0.4439184332363364, 0.48318877787690134, 0.47816253748441295, 0.49069911872716204, 0.5393295506761574]",False,0.8000,0.2000,0.5000,0.1000,0.2000,0.0100,2.0000
19,go,Hit,1,0.7400,"[0.0, 0.01050317647429187, 0.00786524354395004, 0.018567570639357794, 0.04643648097755026, 0.06548617994075848, 0.07503867960957881, 0.08066412766697872, 0.10177205710365685, 0.094308924198471, 0.08473890503250418, 0.11860539154460634, 0.11474162028324618, 0.10500157533793611, 0.10318638402435704, 0.11663552612021713, 0.10206358672329957, 0.13624546985141625, 0.151161220749053, 0.17865976531007552, 0.1638536105502052, 0.16150609172975333, 0.1741785815361643, 0.1333605678368393, 0.1345540351516484, 0.13825279727976914, 0.1465626154537683, 0.19175868875502006, 0.20858971711449664, 0.1578502116023334, 0.1736074881889273, 0.20072172222879414, 0.18411514412764612, 0.22283018322606518, 0.24173949984813717, 0.2614369742307599, 0.251096783437195, 0.2567432153997588, 0.2639311319268644, 0.25983143094775707, 0.276467793771766, 0.24224275447980817, 0.2554256679837527, 0.27301897067042574, 0.2741153682307611, 0.3164934639442574, 0.3411691720694343, 0.34067314427924933, 0.377220880402693, 0.40348625657095866, 0.3960484264564106, 0.4195626827458043, 0.4278556415013397, 0.43128130738302445, 0.45857719383115736, 0.48463901431089335, 0.49050180056392545, 0.49910580336598703, 0.4752275447006727, 0.48555109669205737, 0.4570013746404583, 0.4730812988956676, 0.48732872051919185, 0.4945424166561566, 0.527813107240204]",False,0.8000,0.2000,0.5000,0.1000,0.2000,0.0100,2.0000
20,go,Hit,1,0.6400,"[0.0, 0.05177611584729236, 0.05675986067869665, 0.06947290611798408, 0.07231762653833479, 0.059733736345432595, 0.10438875589707033, 0.10243184228904946, 0.1241249411182309, 0.14821651626572127, 0.17289913705183727, 0.17367017190746598, 0.19486767523541543, 0.18986353365884598, 0.21737441868106985, 0.229102628330921, 0.26722512586223685, 0.2718992159219744, 0.28820513229409306, 0.28666761475850305, 0.29470271483396204, 0.2779974760925195, 0.30236254962997433, 0.3106451986348464, 0.3381658740680872, 0.3246566042277438, 0.3183584543326032, 0.3496910989391271, 0.3259236649843877, 0.3282219457753383, 0.3319716460667557, 0.3361945158735052, 0.3663303306932008, 0.356336276599169, 0.34029404665449137, 0.32729107787142325, 0.29571112702928304, 0.31469522130173394, 0.31449486841164986, 0.3121783190929078, 0.3411888681593241, 0.36767189609553863, 0.33963929958576544, 0.3452156736946914, 0.3311666599538731, 0.33442274425745927, 0.37739096073987155, 0.36368893485466075, 0.39874021442175417, 0.4107497902370435, 0.44115198940393147, 0.46122050302825857, 0.47315888957270547, 0.48535248946842124, 0.504811636889865]",False,0.8000,0.2000,0.5000,0.1000,0.2000,0.0100,2.0000
21,go,Hit,1,0.5400,"[0.0, 0.02741649953285214, 0.03059256751812068, 0.04414291174417372, 0.03344142732197064, 0.02772321646415616, 0.03220731261150166, 0.01693758626935598, 0.04046397653905215, 0.02071750257633796, 0.048937270266184635, 0.09015652354924351, 0.0870756480768346, 0.10140349303159962, 0.11758387259406314, 0.14253090696585735, 0.17633071061373823, 0.18720938478940477, 0.2125808195153373, 0.2364888819992632, 0.25682693861254635, 0.22096303408964568, 0.2372922334914895, 0.2325419563015736, 0.24338053950320346, 0.2729345976831455, 0.268960233330459, 0.2752133584934576, 0.2957753667005115, 0.2947244101526252, 0.32555564009165705, 0.34861926662450077, 0.3943045989141715, 0.3861986020233551, 0.4037888244097382, 0.3785488360014844, 0.3960297442240719, 0.43290770430540315, 0.45426805534655923, 0.44767515756444004, 0.44077180304117664, 0.42635173627699335, 0.471637170786767, 0.4916563025914062, 0.5377248784627111]",False,0.8000,0.2000,0.5000,0.1000,0.2000,0.0100,2.0000
22,go,Hit,1,0.8400,"[0.0, -0.016503785613066736, -0.026560407217370758, -0.0025583437597903012, 0.028765028881108285, 0.004264484126235802, 0.025621761947948168, 0.03354259863841165, 0.06160694565650341, 0.07405952913853023, 0.08878753291545446, 0.10079482760455209, 0.11066723583057025, 0.14923889505848667, 0.14788048066828507, 0.1586136444604002, 0.14853873815802254, 0.17311528433637094, 0.17036419853995358, 0.20850443602291377, 0.20380642204032742, 0.20553567746586765, 0.19823415585098686, 0.18637104660499718, 0.19492283473136285, 0.17301694105248702, 0.18373813455584684, 0.15232442938057716, 0.16637383557424912, 0.18145888805718616, 0.18204352955072384, 0.17192011650854988, 0.16466217666682748, 0.20600944364345977, 0.2221253728002739, 0.23806866306339552, 0.23588786278729976, 0.23362333689038317, 0.29647841376483264, 0.2905321061738255, 0.29599243804346625, 0.2939527576091739, 0.29269098759072776, 0.3099365400019272, 0.29107454550951933, 0.26860269656323377, 0.27351126214138427, 0.27695093741567406, 0.22340213118143673, 0.23255595346067837, 0.21821175958504718, 0.2191177127877298, 0.24256187490350378, 0.23884765309153444, 0.24520215746928026, 0.26994068002308286, 0.265387980475683, 0.2695373716650872, 0.28707610308380904, 0.30702945523321495, 0.3215322640421435, 0.3394002799447908, 0.3719010110646571, 0.37861976087204746, 0.38991407302287906, 0.3810107260684656, 0.38162162558640556, 0.38518248257023213, 0.35848149148837855, 0.3491503910864499, 0.36035806695800116, 0.41240804221555605, 0.4529706190035691, 0.46520820844497496, 0.5028333012187708]",False,0.8000,0.2000,0.5000,0.1000,0.2000,0.0100,2.0000
23,go,Hit,1,0.7300,"[0.0, 0.009271459864540728, 0.008230408482041929, 0.00616207321986377, 0.026537254623780905, 0.051184021301325766, 0.06784680041539351, 0.10171765146895065, 0.14232552436092968, 0.15498422045293497, 0.1560426684270109, 0.15128699673371102, 0.15162822688132538, 0.12351953023066997, 0.11700030021796276, 0.14442106968718318, 0.1327435548668628, 0.1518073912272831, 0.18040631413076716, 0.1620400114976774, 0.18006192842980911, 0.1977228199338839, 0.24570997315565227, 0.260531685890869, 0.24613064206468815, 0.25971817987983736, 0.25565260147653224, 0.24358489835853417, 0.2641686930143438, 0.28608803918357223, 0.3079278807467254, 0.2957267737314918, 0.2503005171778288, 0.2748070671194986, 0.3057226780105891, 0.33015713006366887, 0.34397710996700637, 0.36734711005159726, 0.36769183033020736, 0.37731199169152113, 0.375153323203662, 0.34239838793326616, 0.34851038192217293, 0.3391967844730379, 0.3674789744111664, 0.37843293819756385, 0.37520060776583325, 0.3998221598785192, 0.4059958564636879, 0.39297943140451524, 0.3960578026770529, 0.37614066204100643, 0.35146766624472303, 0.378661028050173, 0.4175350867050512, 0.4195717061806304, 0.4178118635415697, 0.4314558261018416, 0.4319138768791422, 0.48147523865332253, 0.4670296640990058, 0.4829063600894629, 0.48895165708039845, 0.5131629725513301]",False,0.8000,0.2000,0.5000,0.1000,0.2000,0.0100,2.0000
24,nogo,Correct Rejection,0,2.0000,"[0.0, 0.008983380595969046, -0.004991945291791649, 0.010389236292228378, 0.030006412071550324, 0.030284013332126054, 0.03751219312372853, 0.020067355249116965, 0.007185959868480394, -0.026277425486556944, -0.011288073893261537, 0.0067236702459430725, 0.004815402952317825, -0.016203709915806084, -0.01657899537791437, -0.021572173660093435, 0.0008388258796453579, 0.011797245138998484, 0.03161921989463681, 0.013377641140725045, -0.0018633349516338077, -0.01756963220409821, 0.03455472578635617, 0.02017428946472078, 0.012593344326717847, 0.006142401519461207, -0.005811471572993592, -0.004124021187664287, -0.003426614618827841, 0.00888460913304003, 0.0023390673289885085, -0.002425253320412512, -0.00280168357602135, -0.018359283456280868, 0.003959489022895446, 0.02264721922416356, -0.01426955422520635, 0.02844687015410543, 0.023990659137554153, 0.022204447796820695, 0.04953331011744053, 0.062341434709591435, 0.023294319751997306, 0.04316480827181013, 0.06134343611867141, 0.07185997092459481, 0.06668700893512863, 0.07381963453313878, 0.08914224977059496, 0.07160561490849301, 0.06953984023657979, 0.057094582105539804, 0.0687652961909168, 0.06346896171690397, 0.04771243417577322, 0.05655630002343942, 0.0318854419999335, 0.02240997538107333, 0.0011075260048173628, 0.012809142382108011, 0.03537557518201856, 0.045183353306454246, 0.0451679774555407, 0.03029835339973904, -0.005004674022598667, -0.022909457807278783, -0.01907464602222341, -0.03061644847793551, -0.05822478526776634, -0.07313007060121803, -0.06308473583050503, -0.06501560317112468, -0.02942892808898414, -0.07163308974734234, -0.06433751764418773, -0.08542659334195675, -0.08966505127299658, -0.08579837460617636, -0.0819793191939144, -0.06554744546399909, -0.04508826835273999, -0.021284543590044374, -0.012473853721609349, -0.014045005865377855, -0.02555735310535521, -0.01616113132125019, -0.019857373908200804, -0.007924041385942977, 0.006290522231533001, -0.03323269991213008, -0.047693346919770147, -0.05237769771425971, -0.04051439256854962, -0.06732804401229038, -0.06984609187391735, -0.05088449439948166, -0.03819659480641141, -0.05142314357914317, -0.03940816718697283, -0.0023153555512422375, -0.0012061544741283688, -0.009558914054148424, -0.015602775588578262, 0.00033287118629590773, -0.029031981416645827, -0.021690734384221668, 0.007003915876158177, 0.009243450755479419, -0.00535664397363087, -0.018278564054400773, -0.002893313910358356, -0.0026347592528032987, -0.027556251570209057, -0.040043832023189216, -0.07297062842260996, -0.11443545999974508, -0.09826422324986524, -0.08048242225557556, -0.08796663590729602, -0.08556798562317017, -0.07960892308185893, -0.07218054146378763, -0.053378703287380196, -0.06191361459595216, -0.07020985731203501, -0.06380678920316422, -0.032639150263857, -0.03537770239128997, -0.038145452721026256, -0.01841586023559071, -0.019140404717752524, -0.02563115250726408, -0.01642794146039231, 0.021978852185067815, 0.0551455841292161, 0.05040175617968798, 0.06658222570954431, 0.04057199341074932, 0.07387936292120457, 0.0905320990575789, 0.10424932488812025, 0.10497914416084497, 0.07268764936088551, 0.04995709403735414, 0.035977029805256654, 0.036424203449689746, 0.012299260670292463, 0.029440042020999375, 0.01465242432311616, 0.0429270854154602, 0.03930828791579294, 0.047678288531771806, 0.03884855435504492, 0.038879834321820086, -0.008787504219635985, 0.013317150442189438, 0.07076945228901257, 0.054373189579222846, 0.09462176842607972, 0.12964106779742632, 0.15358134982287372, 0.1779407878921642, 0.15265798186350246, 0.19243354465786136, 0.19142559141583254, 0.15957115288142543, 0.18338642690101037, 0.182127023758959, 0.16564462164324303, 0.15101445636359215, 0.16518424158043726, 0.1831298505495393, 0.1871653229408396, 0.1642144780107358, 0.14853347428635633, 0.16607707029432528, 0.18793958152196089, 0.16775806082545605, 0.15298861797217003, 0.1554040555017795, 0.1796525512380339, 0.14572163795184978, 0.15879712280476757, 0.17460265554252963, 0.20954725890291445, 0.24892506164341674, 0.23408454390481873, 0.2519604801509631, 0.23233177335199948, 0.2099707517554504, 0.21127717473476476]",True,0.8000,0.2000,0.5000,0.1000,0.2000,0.0100,2.0000
25,go,Hit,1,0.6800,"[0.0, -0.014090857619271889, -0.03091074663656658, -0.0310014642405187, -0.027518656736568354, -0.019667344756479153, -0.0183488501515305, -0.0021188957722852696, 0.0187101541651862, 0.021393022036014783, 0.03455013000442498, 0.011109302473801916, -0.004399637409170144, -0.004226084415699943, 0.04404691876748994, 0.06345577760072138, 0.048118431445374234, 0.0246222814131394, 0.004986698976800662, -0.027392071253324466, -0.008103535336999427, 0.02224789420124229, -0.02058552147073074, -0.017296877543345968, -0.005041104143279204, -0.025683305172801242, 0.008495538342985998, -0.008468802290943999, -0.015503790071071189, -0.007300261170602415, 0.043782071539797233, 0.06072193370138257, 0.054379664284519805, 0.06412916763206229, 0.06213297001022465, 0.10238780814537449, 0.09845312200705206, 0.14202899211904355, 0.17106935286379896, 0.19394806556770441, 0.19260699984950358, 0.2341138115125052, 0.2553804774592569, 0.27901096134783177, 0.32343617903741584, 0.3372357103127844, 0.3470069380175801, 0.35076465857237005, 0.35821123248191944, 0.4376839769281219, 0.42900394259833485, 0.45142237516056927, 0.423402570336568, 0.4010559117226883, 0.42451273426242275, 0.45472284416428665, 0.46493542487444056, 0.4903239686389935, 0.5347741596886404]",False,0.8000,0.2000,0.5000,0.1000,0.2000,0.0100,2.0000
26,go,Hit,1,0.6500,"[0.0, 0.004221842896448258, 0.054977633820438854, 0.10917651911734498, 0.1302639239872321, 0.16328762131209257, 0.18377203997311087, 0.20054204683512114, 0.19635746113916777, 0.2076684500093615, 0.2349841008208732, 0.2669873241254752, 0.27917654503090944, 0.2598546522419914, 0.2826876979469175, 0.2871232362005667, 0.32592953106552935, 0.32507684125813635, 0.33025674259736065, 0.3042503398988699, 0.33123955840920993, 0.3612921963440465, 0.35277720592588435, 0.35639470730325334, 0.35221103043500374, 0.33214788573423515, 0.3136723640600108, 0.3178087392547558, 0.3248858588928954, 0.3289427688290061, 0.31093493013922957, 0.298708594189951, 0.27843039223809274, 0.28312029890685636, 0.32604511371660894, 0.29840145436007914, 0.3231611773102447, 0.36079142250393387, 0.36571886261883785, 0.37039676381760744, 0.39581854597934246, 0.3819440316846439, 0.39487174046422496, 0.40647716978117576, 0.39439991537333574, 0.4053086185864836, 0.44392960038392815, 0.43271466599164565, 0.44352493632317813, 0.436174236967029, 0.4788590023782439, 0.47454248522232007, 0.4731986991072141, 0.4850459344211983, 0.4768400463616847, 0.5087503310094129]",False,0.8000,0.2000,0.5000,0.1000,0.2000,0.0100,2.0000
27,go,Hit,1,0.5900,"[0.0, 0.0062334598994178095, 0.030645243268640356, 0.052644207516170584, 0.02673286222626809, 0.03386880066693358, 0.06389623270649646, 0.054883440812180245, 0.044381090547570376, 0.07306519587802895, 0.08067154416843526, 0.08824833716583008, 0.08285320178862285, 0.09961788814309895, 0.13427479613120175, 0.14076002957119746, 0.14537981064906075, 0.14200357681124087, 0.2079969699534428, 0.2512413630794559, 0.2696252238104446, 0.26332344667649327, 0.26900081822930605, 0.29719060405431075, 0.26821296082089696, 0.24834333019747265, 0.26860130918764097, 0.253079023687444, 0.28266676904907573, 0.2829217192209584, 0.2637460887722557, 0.26382492331345025, 0.25906183194705146, 0.28554200337139235, 0.2907938751247608, 0.3035921645043588, 0.32828527523721873, 0.32705054660308713, 0.34824866769785834, 0.356775809643712, 0.378493179744301, 0.3789601350148667, 0.38763163471676376, 0.41158089771039863, 0.3935349600768027, 0.3950758225160783, 0.4438370281050106, 0.4755072727986121, 0.4805862315211176, 0.5082645391095055]",False,0.8000,0.2000,0.5000,0.1000,0.2000,0.0100,2.0000
28,go,Hit,1,1.1000,"[0.0, -0.005528428300671238, -0.03391622955432456, -0.03089322983967747, -0.01972376706050498, -0.00840021313920149, 0.009229442659481998, 0.03792276107983769, 0.05873471543664668, 0.04712286907554572, 0.03510206623491317, 0.010306783467553135, -0.006450462945683785, 0.027932255815681768, -0.004949059683077288, -0.011266496198136662, -0.011223050637801176, 0.014989517393493553, 0.03974297907777932, 0.05687753678941832, 0.059915662403329205, 0.06511411564813553, 0.06961918577107262, 0.08025210672068261, 0.07589510177348387, 0.07565270461216017, 0.04548076860803656, 0.06079504855174471, 0.038672206428862294, 0.03293689818456451, 0.051581358540976396, 0.05328698797370917, 0.08689406205955275, 0.13109129643727835, 0.15397103327229433, 0.16974252074044888, 0.18482837703211594, 0.183943746539671, 0.14549741213286385, 0.1479349823530883, 0.11596930329157115, 0.10711993256955413, 0.10443437977130855, 0.10693903574635016, 0.13834318122806172, 0.1548027273607665, 0.12273982417537321, 0.17995894191024697, 0.18313194853449416, 0.21379831639468067, 0.24647305555966242, 0.27911867135300433, 0.2594875660243072, 0.23653592933200693, 0.2460969663357873, 0.2271023160917014, 0.23075950505485737, 0.2315328369377322, 0.2131944318684444, 0.1980001516318335, 0.1938200758303585, 0.19949296915286252, 0.19640171394654324, 0.19536022063665287, 0.21769502671147656, 0.23898804785875644, 0.24438886017809333, 0.25841099350438324, 0.2898983126071427, 0.280003024846415, 0.26452217367211206, 0.308415418277978, 0.3518772795806947, 0.33024290819807756, 0.3674184908666111, 0.3805046594761344, 0.41281073921109585, 0.42367790786214055, 0.41077132450817794, 0.3923364431200744, 0.43026481648021975, 0.43614952488914355, 0.4224536471657312, 0.4160193613159935, 0.43610979344795353, 0.44350769000771856, 0.47200191549318465, 0.460546156746837, 0.40733546310712776, 0.42404401067285336, 0.43969092676432037, 0.4511112400018764, 0.4846160784035628, 0.45755611005499536, 0.4685361012791843, 0.45943383149593514, 0.46855122335337657, 0.47170638726279207, 0.4947088316226192, 0.49814809630242207, 0.5354865536855106]",False,0.8000,0.2000,0.5000,0.1000,0.2000,0.0100,2.0000
29,go,Hit,1,0.5700,"[0.0, 0.01256653192053754, -0.019427812484522695, 0.012537775297203672, -0.0004771052016067229, 0.00990342166314299, -0.01318330076587359, -0.01861326730971821, -0.004674339604987369, -0.007611673995119354, 0.011897707559740497, 0.026237861865022017, 0.03850806416625659, 0.04834895522919996, 0.08940187147194403, 0.1117246244282029, 0.125715122882928, 0.15788745811357507, 0.1585049379418813, 0.1866755478601679, 0.17158171981116174, 0.17468996485757388, 0.17577009146316352, 0.17635863557546544, 0.16860530846287197, 0.15750216441130716, 0.18046524607326234, 0.18507088083661347, 0.1755563485926368, 0.16108632585694946, 0.19253016491747643, 0.21781599445136504, 0.22936457013580883, 0.24240013226739485, 0.2900775767029108, 0.3170741487618046, 0.348214836693719, 0.3479011633631638, 0.3862587007605459, 0.36184547747377455, 0.3739532002486645, 0.42496719631156515, 0.4272468205184196, 0.4520719349995976, 0.43386202011098696, 0.461752911151936, 0.4921363042344795, 0.5000728159518378]",False,0.8000,0.2000,0.5000,0.1000,0.2000,0.0100,2.0000
30,go,Hit,1,0.5100,"[0.0, -0.004950834996560759, 0.031192915524000858, 0.03839125018057411, 0.02968768140643241, 0.0350709170235361, 0.03259111831832614, 0.015404394952894671, 0.013161931496012113, 0.04761676160810422, 0.07106633095473408, 0.055884689272587565, 0.09615214081373695, 0.10096510628217048, 0.08406384261118952, 0.07671031433521056, 0.12342009454123151, 0.14896276872270806, 0.16291848420119404, 0.16384788977078227, 0.19547317363212124, 0.1983768474821931, 0.1978961714811381, 0.23169921250416925, 0.2753151897239205, 0.268559749442658, 0.2791161667379588, 0.25359271793960736, 0.28522531895335973, 0.2653459868036686, 0.27514570240264197, 0.2959749548972782, 0.31831273778545555, 0.30258599456722396, 0.31467577633808297, 0.37152949760193676, 0.4115442126908402, 0.4421849226579622, 0.4149207503182301, 0.44381578118112325, 0.4859874718676586, 0.5028114211103955]",False,0.8000,0.2000,0.5000,0.1000,0.2000,0.0100,2.0000
31,go,Hit,1,0.5600,"[0.0, -0.025143998978517074, -0.03060837498803865, -0.051931522739914845, -0.028527050357214444, -0.034850922548211934, -0.002861484298055321, 0.00724111459198065, 0.0027157672517514435, -0.027862524393550348, -0.004128499268857264, 0.02705578307645064, 0.026725532591283883, 0.037918825594343154, 0.06868406078684042, 0.06850660004659169, 0.0870345690591901, 0.07862234674051428, 0.10533365476469747, 0.10229019860810858, 0.11383462763575478, 0.09030876886189576, 0.12815802531992765, 0.15081554250212173, 0.1482427032837151, 0.17476017493189783, 0.18196884380512027, 0.1964021279411992, 0.21956691138215567, 0.24043729616434684, 0.24780258023694274, 0.2609095906821605, 0.27317287549898905, 0.32817027070287874, 0.3432503770522295, 0.34929115036769703, 0.38464462598978244, 0.3753263287457849, 0.3784432663369491, 0.40381529873160116, 0.42194869528306894, 0.4098235178519677, 0.4699770295450796, 0.4637235830126388, 0.4923653300648323, 0.4806731223293755, 0.5087843272292598]",False,0.8000,0.2000,0.5000,0.1000,0.2000,0.0100,2.0000
32,go,Hit,1,0.6700,"[0.0, 0.049199162146759276, 0.08633266045855129, 0.11391585049660402, 0.10288143515708575, 0.10805989622277375, 0.12042973329913215, 0.1232816650880483, 0.12852135388444683, 0.1481911384210279, 0.13096370746029684, 0.17619028507095566, 0.17035402070437083, 0.1652016346574511, 0.1605314317333936, 0.128670768293343, 0.10460490702148184, 0.13253824065837175, 0.09958376826865079, 0.11316230500974334, 0.10116628609151179, 0.09918444356686966, 0.10975375448985437, 0.14882067406153532, 0.13430273157876702, 0.18408668101944403, 0.18691906111717252, 0.20407964613571072, 0.25863308977046473, 0.28189209385084585, 0.32397597447490356, 0.32178701082279293, 0.3245987533006751, 0.33667981013467374, 0.35745531976583483, 0.36610857900549837, 0.38873377538242265, 0.3704032271897092, 0.3837900827913202, 0.40453404511758384, 0.41762342844076483, 0.36465882760721646, 0.4149000493896175, 0.4130025283185834, 0.40194573718692045, 0.4321909679377887, 0.42964730679170615, 0.44617819079827264, 0.47383039038463276, 0.47438039378579294, 0.4541908823802591, 0.45231729354692773, 0.4709585084284482, 0.47796778177180466, 0.47192347962853465, 0.47471742847840664, 0.49475873868114595, 0.5019430190637006]",False,0.8000,0.2000,0.5000,0.1000,0.2000,0.0100,2.0000
33,go,Hit,1,0.7300,"[0.0, 0.020560269219798463, 0.028722323968084898, 0.05926690330194532, 0.017742403187282818, 0.042663692425160674, 0.061530281855280373, 0.040477185269288465, 0.06190392211525384, 0.06367313831576278, 0.051123450606583104, 0.029955434361861644, 0.03436269548173786, 0.04179256629171075, 0.016037247865112653, 0.05070864609984219, 0.07764309797785346, 0.1147577297693118, 0.12739912617059437, 0.11955553545486457, 0.11712131583933087, 0.11637592339360205, 0.11741780670116211, 0.11612694858143964, 0.08916484831960478, 0.09015532678694518, 0.10865520902578116, 0.14648966784532128, 0.17458395825161455, 0.1963521158286637, 0.1788003185416973, 0.17880795497804042, 0.19100936419377187, 0.2081700359387997, 0.219232258094872, 0.18396743422933734, 0.17870984989645983, 0.22422217738148573, 0.22647790322389044, 0.22569234920843023, 0.2508673620764248, 0.26894479998778725, 0.2713062476789859, 0.27774901084589565, 0.2698118630837724, 0.29730469741069165, 0.30558701355415224, 0.31680018336911364, 0.3257300924853968, 0.3352195009284388, 0.29942057074810746, 0.31621143938520085, 0.33831973732705456, 0.3530759951580302, 0.33328912149731543, 0.36442470057456944, 0.3852861549493356, 0.4004324866049978, 0.4310751654975358, 0.464621891281037, 0.4683630629340603, 0.4768132695284498, 0.48119388617974884, 0.510192702526126]",False,0.8000,0.2000,0.5000,0.1000,0.2000,0.0100,2.0000
34,nogo,Correct Rejection,0,2.0000,"[0.0, 0.008747777779581795, 0.024652595596717564, 0.04189684293184589, 0.02423099813129103, 0.022714571166345465, -0.003186624575694706, -0.04108275392805469, -0.05249579793632441, -0.06800849313528273, -0.04476837334086593, -0.05532710066473879, -0.05573649520885723, -0.047756225535797295, -0.07139189248720776, -0.07997523303476109, -0.0958724130135727, -0.08103119039245962, -0.0806423551123617, -0.052101413037199326, -0.07083249729054047, -0.0659066093706986, -0.03759830075946062, -0.05028571093289453, -0.03721903603211001, -0.03197435912235442, -0.03090218111335668, -0.05364335752111936, -0.06399616952822262, -0.07990028087648487, -0.06714731959690143, -0.07736857140532542, -0.08999789189801681, -0.12724308906831708, -0.12407135358678184, -0.09128698698134902, -0.08527441232945374, -0.08113713487442142, -0.046257926094571925, -0.028578574092745758, -0.004511067467600879, 0.00048682962939373096, 0.00669012867433577, 0.00398472393463608, -0.016560856053903696, -0.015433979853356669, -0.03256814325223098, -0.04190919417481062, -0.024684523222049864, -0.03961080669280628, -0.025940654438500993, -0.03307534616006392, -0.053116306944139144, -0.04944152173126791, -0.052495687493867134, -0.06651890274177202, -0.06674474674115474, -0.06570106486076728, -0.06850463859797651, -0.05778332568506056, -0.056613943595121674, -0.05035153437853342, -0.019481831124084026, -0.003431667434536132, -0.025908853173060988, -0.03511011625240274, -0.026220760987585967, -0.011054235651696248, 0.015252274722234577, 0.00818612928473312, 0.004290161881880336, 0.0018324351038788169, -0.004541935980462311, 0.005940274988442712, 0.00974785769144781, -0.003825891203513494, -0.0007304706677731922, 0.002476498496502863, -0.028624058380337946, -0.03464826781066302, -0.062669125218081, -0.07433156667640259, -0.09181046491686624, -0.07907405614956772, -0.06923923111585033, -0.0400111243000555, -0.0542601364529273, -0.02737724801483165, -0.04295278632126961, -0.026645507329682662, -0.04445758163259988, -0.023137784425889894, 0.0026165254403507227, -0.04921024210380415, -0.06096119684205098, -0.12956373988927905, -0.14891476744963542, -0.14801457271532134, -0.18686215275708942, -0.17129606211800186, -0.1708388889193676, -0.15434167920639935, -0.14331110040289088, -0.1428230072878228, -0.11893977718929184, -0.11523281586561826, -0.09504297126237822, -0.10674676012915667, -0.14613867929337165, -0.1475886834321384, -0.16055950150189488, -0.18212497992602072, -0.19616149939514832, -0.20569576559521843, -0.21075716453149765, -0.1991512017877573, -0.18133465930597337, -0.21154913306047318, -0.17519804816796442, -0.1892988320336929, -0.19820311300859206, -0.21239075908059968, -0.17691500431123655, -0.16900053541532117, -0.15761250773280622, -0.14844269997288356, -0.14385808054938062, -0.12239343827402598, -0.11379821767242781, -0.1302554129328237, -0.13107861102919038, -0.11380827172006773, -0.11323789735588762, -0.11623446098435428, -0.14237270462811677, -0.11440290038695979, -0.12886641112130806, -0.14507137856994107, -0.16747687493651567, -0.1907203377953691, -0.18045744592272844, -0.15925417073890047, -0.1811731191763705, -0.2010755239180771, -0.21621740376933724, -0.19173183820173814, -0.19837937181671492, -0.20400301911796306, -0.20642806100735106, -0.21569441691267335, -0.20853476867546702, -0.20548676789188175, -0.20757464073296567, -0.23198173235215513, -0.23486124632659042, -0.23519620699853086, -0.2737236148709766, -0.26035890243744003, -0.2684509884016405, -0.29612153932727364, -0.28424449375195854, -0.2960095468899375, -0.29496114915731136, -0.3103471310927076, -0.3119759147583555, -0.2873367066482462, -0.2777789259625109, -0.2732944137753894, -0.277161738250378, -0.28722828638570336, -0.3075271791377359, -0.28630098302608065, -0.30169978061386776, -0.33748981483687723, -0.33205814426528807, -0.3187653465600528, -0.32137471262489037, -0.2970011985776619, -0.2890764281914791, -0.2650396554282412, -0.2736291498232215, -0.2688470391804588, -0.2600712890434228, -0.27488600164289245, -0.2748269265061543, -0.24233369436390795, -0.2579168468633963, -0.2547889422124334, -0.2442857250007742, -0.29638889054507966, -0.25767998799825004]",True,0.8000,0.2000,0.5000,0.1000,0.2000,0.0100,2.0000
35,go,Hit,1,0.6900,"[0.0, 0.02120201294197025, 0.03776697272977192, 0.038662395563854465, 0.021379835177862877, 0.05755895723215217, 0.05661464220765518, 0.04745209409084015, 0.09625995042113822, 0.12023510338467897, 0.10183958769112991, 0.11643483558657045, 0.11403082381650291, 0.10137085970153231, 0.12970091288824165, 0.16312762163535954, 0.17574192074102157, 0.19211254772252281, 0.2127926578511951, 0.22587706405369817, 0.23665872117759013, 0.26459357419696344, 0.2586910113006536, 0.2643143887998641, 0.26008611026190503, 0.2918775683341446, 0.3128255780591352, 0.2872638229624697, 0.23408555156121882, 0.2567746821456195, 0.2852553332412546, 0.29058138751799756, 0.3030744587364702, 0.3123707216934419, 0.2787553077630599, 0.28914852964623927, 0.3162249209349508, 0.3175692549302553, 0.31720978042640846, 0.3203921781144047, 0.3330149903806399, 0.3280654122455225, 0.3352916710339332, 0.3463938416223159, 0.32710320922526764, 0.3183079905138891, 0.3640097684258946, 0.35687158370720923, 0.347778020917525, 0.3312614141491341, 0.3340769854764965, 0.3786630098864243, 0.37827846901326134, 0.38729451208082455, 0.39350840363570294, 0.434535286690911, 0.45336269824771086, 0.45784167143372884, 0.4843720497631879, 0.5049908503789136]",False,0.8000,0.2000,0.5000,0.1000,0.2000,0.0100,2.0000
36,go,Hit,1,0.6700,"[0.0, -0.013263265069533039, 0.01883930390334135, 0.026021343638548487, 0.04790907083343595, 0.056973170800511654, 0.04728918507361239, 0.07086993766843815, 0.0963845200084891, 0.0828638954006808, 0.08771496416929139, 0.0957266423176078, 0.09676011722505679, 0.09950989914075759, 0.11459514095475566, 0.13604562585304758, 0.14600774655786422, 0.14430864175552452, 0.1194088595206719, 0.12819450670798208, 0.14509792091051657, 0.15419695751745352, 0.16592537356494336, 0.1723858597239401, 0.17402825634411817, 0.1543670965418206, 0.1459697484510455, 0.16482737115320822, 0.1727169085513341, 0.20100252698246243, 0.18818605667478824, 0.18049039946985587, 0.19632753800121258, 0.213443007498449, 0.18449772998224964, 0.19687143992178238, 0.20312611964501945, 0.20536691813606195, 0.1941914115313796, 0.23165234413124303, 0.24227421892679504, 0.2824271506850044, 0.30457543621110206, 0.317234359389439, 0.30936737247589907, 0.299948117203435, 0.2874341922708899, 0.2998444377989835, 0.3312621109620597, 0.3518975572123278, 0.3443705321479215, 0.38606880856496284, 0.4163828584401768, 0.4578387744321638, 0.47577684855177527, 0.49481977052073955, 0.4990627862738564, 0.502868127182361]",False,0.8000,0.2000,0.5000,0.1000,0.2000,0.0100,2.0000
37,go,Hit,1,0.7300,"[0.0, -0.011742592596109085, -0.005317696107913995, 0.037478580134298084, 0.012501155360755183, 0.036678620439142315, 0.06012945185407416, 0.06732804095108304, 0.04181532322831768, 0.056644061040449584, 0.05664523012346729, 0.06580939191567411, 0.07123630576295042, 0.07191260087943717, 0.09371562757874652, 0.11231426426624426, 0.14633318462238704, 0.16087245981963208, 0.19504823369817453, 0.2060920157999724, 0.19792613589897828, 0.18719198682334887, 0.23855977537392314, 0.24081922927549865, 0.2521349061339038, 0.209742631241258, 0.20606028542401883, 0.19672861085365856, 0.19273047618391542, 0.25872280562221867, 0.25537110974733274, 0.2843292368616036, 0.32718479629489233, 0.326528143744624, 0.31608434828379955, 0.3429376627395684, 0.3226088110244885, 0.31052650896668293, 0.32492548070947125, 0.29909332853991344, 0.31142872244759906, 0.3134871953153123, 0.3198668923352487, 0.33243330004654864, 0.34523526664157095, 0.38787692295070475, 0.4051032159941774, 0.43941843670425407, 0.4565455595402506, 0.48865560839746236, 0.49368639240549633, 0.4645676068878383, 0.47687626061341226, 0.4839222580793046, 0.43225768485993354, 0.43201379615571617, 0.41034480429638276, 0.43989131141687077, 0.41827664629478883, 0.4613363762641411, 0.4771284702514775, 0.4729578329308042, 0.47330838828588356, 0.5041154639893537]",False,0.8000,0.2000,0.5000,0.1000,0.2000,0.0100,2.0000
38,nogo,Correct Rejection,0,2.0000,"[0.0, -0.011191053510284484, -0.004944753117635614, -0.015133675652979319, -0.07470747769359347, -0.07176244790824876, -0.06402163094745135, -0.05491750494638956, -0.06837238494501112, -0.06768020171154329, -0.0764630427108743, -0.08552064378654337, -0.11522736232397494, -0.14654750576202624, -0.161811058780983, -0.16539282786381526, -0.17557914605664487, -0.2017190432054054, -0.18908742603201145, -0.18665176641763903, -0.215029792260676, -0.24392356287870331, -0.23182845223505083, -0.2062578801897978, -0.19597964964920184, -0.20443573378890054, -0.19562427724109668, -0.20356305205882663, -0.2178891640111108, -0.19244942459897654, -0.1986046262273226, -0.20811773736028577, -0.22369115543456652, -0.24909137937457404, -0.22272981862893243, -0.22519570115447388, -0.20732375851397683, -0.2180097228987464, -0.224269206237561, -0.2035057435546506, -0.1804927613097608, -0.18329078479605573, -0.18814544466223254, -0.21846553206335234, -0.22146944752410389, -0.19905399107530825, -0.19953035278624445, -0.20918365925772267, -0.2014977426498596, -0.20581043808601485, -0.21050509058706665, -0.20385561966256396, -0.23373609732094322, -0.21315293734879098, -0.2127545048017776, -0.2102227782130939, -0.21552567456653243, -0.20945971106597727, -0.251685821744948, -0.25788367856468625, -0.22926889765083047, -0.2297680582990563, -0.22697366528883048, -0.2146474745790877, -0.21534771144858267, -0.18570790461196987, -0.1715205507467804, -0.15009531309327628, -0.15949463986514884, -0.142712902124769, -0.16767212081049993, -0.18332415975550778, -0.18793262025588936, -0.17436889038752787, -0.20353267272350667, -0.187051613778037, -0.21074082249127365, -0.22823010905445407, -0.19993691300996838, -0.17246158002878495, -0.16217406889343317, -0.18233970394973995, -0.20767847516460702, -0.21287628539313086, -0.23196873462839526, -0.2470698722397928, -0.2572688904395114, -0.2570765270713819, -0.26570015349912934, -0.30200386494064163, -0.2867779811671656, -0.2894413564679112, -0.2901807023237641, -0.32964098376084583, -0.31515089338797797, -0.29157164711895933, -0.2673122466793941, -0.24259307182086576, -0.20897737415936976, -0.2107955061479221, -0.23499396742668438, -0.25826162160229754, -0.2724932770812028, -0.2560059976851352, -0.2700625154206373, -0.2526283969670034, -0.23982753737793316, -0.2409911881007856, -0.24880093352291446, -0.23683766468192283, -0.2231654379577258, -0.1939480461145655, -0.202859599526638, -0.19776665548932915, -0.2213732596184874, -0.22654155068142465, -0.19581496526421788, -0.21675650817366435, -0.23539359257919448, -0.2524886777073343, -0.24976356604736255, -0.2564423142358379, -0.2482809108915452, -0.24930684428068023, -0.24427542901518182, -0.2621161410199377, -0.26343402757905876, -0.2799271436199192, -0.23829222233010192, -0.23123211557660864, -0.2219112529912688, -0.2552654687444545, -0.2902208002979169, -0.30474191477057333, -0.27840930100965233, -0.30296860118093316, -0.2856335774933443, -0.29347176857218776, -0.31269966346441364, -0.3022979655190828, -0.26907785333293727, -0.2518885891057473, -0.22977507550429943, -0.25180531652854704, -0.2181332593652538, -0.22565798919303273, -0.21200800925832258, -0.23238563628824882, -0.2227273142557802, -0.20893026145203547, -0.20122669690894823, -0.1554782614507236, -0.16181749940732368, -0.1502694598895394, -0.1856040810281474, -0.19976254440199778, -0.19611101329277766, -0.19739095600478135, -0.2319884536695306, -0.27063036502863635, -0.268823673300629, -0.26824949185750074, -0.2957607968587043, -0.24356894403509888, -0.26829154152414414, -0.2446973525202538, -0.2581448042348313, -0.27990292313814474, -0.2859166397148533, -0.28440192250197666, -0.2819363980433504, -0.29133616967364623, -0.297866393859514, -0.28865866867908624, -0.31318665988733646, -0.2873406603054588, -0.2742406322564477, -0.25542117601256714, -0.27229908667044983, -0.23383343949332452, -0.20250970709159646, -0.18769491016816015, -0.19124280100492236, -0.19330507200098812, -0.18369954950795855, -0.18854310065104174, -0.14391979245600656, -0.1372288768656469, -0.11362509899531227, -0.15223902643317266, -0.12196969626719656]",True,0.8000,0.2000,0.5000,0.1000,0.2000,0.0100,2.0000
39,go,Hit,1,0.7100,"[0.0, -0.038521161794567375, -0.03739928392031874, -0.02235405709958022, -0.032398517535721635, -0.044021127449698855, -0.0212020279689745, -0.028466994514557843, -0.02616423546828814, -0.030225066110444718, 0.0005623406339880371, 0.0113333298602811, 0.05247890772622583, 0.029905486705310184, 0.026216109473152442, 0.0014427667042198541, -0.008407093334639359, 0.03299224747439097, 0.04495490795153308, 0.04078677504168528, 0.051329273096166986, 0.06283460675851413, 0.06195033150716755, 0.08111145864697819, 0.0910836890259252, 0.08935058118408724, 0.08650758140602736, 0.08189130641712222, 0.07161291965621479, 0.10087979513137181, 0.09735363326912672, 0.12103708207065413, 0.10329636104171183, 0.12302893792333203, 0.1540634522991138, 0.18664684290299907, 0.1898074447439935, 0.14983444775257898, 0.1839593833348102, 0.22666232015976606, 0.25296813509190574, 0.2558002080345248, 0.26923096713027783, 0.2672578039713318, 0.26660948994117073, 0.29639911379389033, 0.3013410624378599, 0.3299485361086819, 0.3303307198619223, 0.3600224035142926, 0.37792084331049913, 0.39334805204597595, 0.37159760444758344, 0.35708686082405483, 0.3423834667687264, 0.3733883481284476, 0.4005779204741288, 0.4223053880113014, 0.4399298253980744, 0.48143810003741694, 0.47996636475426624, 0.5223768720763268]",False,0.8000,0.2000,0.5000,0.1000,0.2000,0.0100,2.0000
40,go,Hit,1,0.5700,"[0.0, -0.022458307874236447, -0.043617430243434674, -0.05620499905074812, -0.03833314037261154, -0.04553082770570839, 0.0018646445491571698, -0.012090018679070651, -0.005977089426911279, -0.006199349234127518, -0.02601164298614881, 0.010807970825164541, 0.0022385523382192837, 0.03049352371295244, 0.03551882960145225, 0.013053275461228565, 0.045754180718330664, 0.09941156550038435, 0.137995544499962, 0.16675960494725228, 0.17749936684646594, 0.21159536747861235, 0.2389222927426685, 0.254770061799762, 0.2478277313847026, 0.2631162692565724, 0.2700237903387581, 0.2608039612815528, 0.29355060483556206, 0.32381551947540727, 0.30544946006185425, 0.3105665836812766, 0.32540664699951255, 0.3299024890414662, 0.3780604990756593, 0.40158705870471034, 0.41501344737339146, 0.4360289114473256, 0.41591013025529816, 0.42541527740085405, 0.45771335167700844, 0.44301221773105826, 0.43138039528202254, 0.4275759374468687, 0.4446857771606772, 0.4535336634319558, 0.48546819576064426, 0.5181714722550801]",False,0.8000,0.2000,0.5000,0.1000,0.2000,0.0100,2.0000
41,nogo,Correct Rejection,0,2.0000,"[0.0, 0.029589933834966373, 0.010006829258922479, -0.002307960457390264, -0.059024243221067765, -0.09841229931452666, -0.09294922717447426, -0.07921585045022261, -0.08310641609764237, -0.07360344822340521, -0.09782701906580174, -0.079724314628536, -0.09339021538859034, -0.06756856527335624, -0.06398413133339999, -0.07614767503144239, -0.09278892034689096, -0.12560651767691955, -0.10555117619199576, -0.10845529939600294, -0.1119504532300198, -0.06534986477707468, -0.09032897997932833, -0.08990775051983443, -0.12159398854437904, -0.139610581843728, -0.17275177007330028, -0.16052936213058405, -0.1926279861305959, -0.1875885026965447, -0.17357144614538703, -0.17341732373724342, -0.18753666934347982, -0.20039408319135701, -0.18576774164657292, -0.20147739926613625, -0.20132602160760216, -0.17007796413437773, -0.15708218890048978, -0.16120305333254792, -0.1575060025435264, -0.15919372904326395, -0.16197023972819813, -0.15349035481815743, -0.1500164411817057, -0.15942892424875182, -0.10946810616197263, -0.055057711306025936, -0.07500902822815932, -0.12415283366345209, -0.12071261567454147, -0.11557500124818848, -0.13161479757172712, -0.15399109355705193, -0.13332260283839042, -0.15950242423837255, -0.15958335012122452, -0.1307574637857064, -0.1510114141802732, -0.16931881171480645, -0.14968910370288757, -0.13479468764515665, -0.12169708128836208, -0.0920818338982712, -0.07100556931575423, -0.04953955929357405, -0.052750496727097085, -0.016787927202648954, -0.01682746857647972, -0.010253022806752467, 0.014078375670492738, 0.031084390212376387, 0.013334266649286827, 0.030418399775308545, 0.06148352393432208, 0.08782600504356519, 0.11214954100285267, 0.12418378936643162, 0.13745512838390647, 0.13063504928633618, 0.1492898184701138, 0.16484642105751504, 0.17746406186128066, 0.2063448127850696, 0.1881766691942258, 0.18748388881211603, 0.18841667518729974, 0.19990683813449778, 0.21271442501764512, 0.17473282892895675, 0.16340745622400477, 0.16842842846278586, 0.1576034817526642, 0.1239977978025868, 0.13002212062660307, 0.11848104778440552, 0.13893916770338374, 0.12909137075061491, 0.13411938923072206, 0.10402517627930072, 0.09289146734145616, 0.06649942082713112, 0.07871877888057682, 0.07890674109246447, 0.028622483490198296, -0.0048295172761498445, -0.009549974244283397, -0.0115611422829947, 0.01036327316547487, -0.003620813296782252, -0.028051809578763312, -0.03168117615880044, 0.0066004469296976065, -0.010474372391873907, -0.02779450609992103, -0.027122312069829672, -0.05450690470065606, -0.04942195413568866, -0.036804047265768136, -0.04702552833663826, -0.051032620284436454, -0.051424766395045854, -0.07201315018116819, -0.05724415663989081, -0.06710580928845523, -0.06130875879225134, -0.06902271679308752, -0.053682828370458666, -0.05032815672027648, -0.07203944158039244, -0.025826035168707337, -0.02770420996501513, -0.012417269080331632, -0.03100873280823729, -0.054593447580624496, -0.08068586505999017, -0.079641498742605, -0.09827631492140528, -0.1149152223583683, -0.13835289738001288, -0.14706297663816387, -0.12177854077463283, -0.14718621025468834, -0.14160928738402964, -0.13679041507756284, -0.1358077885646083, -0.15045005402030426, -0.14944281453838204, -0.17731948699669522, -0.2062725595935381, -0.26132351579890584, -0.2680475839796401, -0.3327214128465232, -0.3556845232479685, -0.40378136361878486, -0.40468127183224256, -0.3931492441269771, -0.39935541611447156, -0.39566168760833625, -0.36235178534360846, -0.37629206311226066, -0.38069167433756335, -0.3916123946324413, -0.3942393926465698, -0.4071090436058154, -0.3804875457328088, -0.3605080676735554, -0.35075911741384985, -0.3567917473013423, -0.37131384618137553, -0.3689305024603026, -0.38087098382442, -0.3880517592725163, -0.37528688949715133, -0.38304253740252303, -0.35535193652467983, -0.35862572974588425, -0.3204297258839346, -0.316953834558519, -0.31240618775923135, -0.34017236951395946, -0.3578531229114193, -0.36022616025212556, -0.34957468838740713, -0.35484946815918084, -0.3312633072189777, -0.36434651102640947, -0.3585208761094025, -0.3603102851977381, -0.35552447737904175, -0.3943284630278818]",True,0.8000,0.2000,0.5000,0.1000,0.2000,0.0100,2.0000
42,go,Hit,1,0.7400,"[0.0, -0.0021931207173061275, -0.025731578371187416, -0.01926846945886894, -0.023214307925460507, -0.0324398579234865, -0.047640818057264854, -0.051044612072854184, -0.018231959937922586, -0.04186219715007275, -0.05779170099516619, -0.08693740094586536, -0.04146276992200758, -0.025119896981249737, 0.0022983265311744237, 0.047710599210541355, 0.044056941033747146, 0.03559913354294588, 0.027258426529462206, 0.014100774631179761, 0.0032037173040919964, 0.034951154396914666, 0.0482187890304447, 0.08309232715547223, 0.04083131114969279, 0.03851972111786716, 0.049972007367917, 0.008141883762644533, 0.011500695463114198, 0.05107138116520144, 0.05155636877651823, 0.061385549451460686, 0.04614270814894769, 0.11044087840344408, 0.09956877633746646, 0.09989093020035872, 0.12189736198860379, 0.12730219361386136, 0.12765573723089463, 0.1280482561941004, 0.14628714068843438, 0.16041592953157535, 0.19703605747003344, 0.2299626675329844, 0.22784161838139255, 0.23186622567327422, 0.23781771131447357, 0.2238938718762698, 0.2213346969846908, 0.19927383443621438, 0.20376154494184098, 0.23707969122824535, 0.24080624818087593, 0.26573882348240857, 0.2917826989416266, 0.3310804228134146, 0.3511487691903994, 0.374821418279716, 0.37993024089943633, 0.39274173704466686, 0.4364915755199813, 0.47270514777411465, 0.4892750579333963, 0.4975888165116463, 0.5017148720637244]",False,0.8000,0.2000,0.5000,0.1000,0.2000,0.0100,2.0000
43,go,Hit,1,0.9300,"[0.0, -0.0022181500079392295, -0.01795706374592522, -0.03103600010899289, -0.043869107514855385, -0.059004323215272644, -0.04525478935226948, -0.01718285965615959, 0.01603862165586879, 0.013556319163039624, 0.031379324627823904, 0.018899423677600218, 0.038726813482437894, 0.03747344699285125, 0.02387001290231446, 0.04224500451526009, 0.059150059938202826, 0.07644429401088962, 0.0911164327901893, 0.08830413506635998, 0.1100776062560038, 0.11641310134144534, 0.11498302823691789, 0.1269543079155821, 0.11463762113636008, 0.12805666167615193, 0.12172739579117005, 0.13902748261598502, 0.17330237927566813, 0.17421188872904914, 0.15654501413779193, 0.14455767905554018, 0.15032056790673146, 0.1679129439040826, 0.17749489047922554, 0.21360138954765295, 0.22378050950487538, 0.24621760525519987, 0.279636225312922, 0.2814154841209024, 0.28771966747622224, 0.3136377865420843, 0.3383148246423842, 0.3243078113571956, 0.3299949587307544, 0.3168611925747954, 0.3244825087232137, 0.3207989940399664, 0.32235001272615665, 0.3049296717081048, 0.3240549591713401, 0.328514228097477, 0.32833279240782276, 0.3562908583896233, 0.38080710337086604, 0.3624865867175758, 0.3759188548325151, 0.3651119655378896, 0.3414041029728609, 0.352033655143247, 0.3402924621702194, 0.35925572684937934, 0.36220939280492287, 0.3762025446589962, 0.35418777504652676, 0.3547426471795251, 0.3283162177943147, 0.30266686578411683, 0.27416703220091393, 0.3129457042032119, 0.3164446127005099, 0.3235205540156272, 0.32650524395980396, 0.36030337373844623, 0.3819910619703903, 0.39868316094759065, 0.4084711489196365, 0.42964550870812085, 0.4549053030201361, 0.45033857822754964, 0.4560847955400763, 0.4698818644953367, 0.48437929179471795, 0.5099272397904413]",False,0.8000,0.2000,0.5000,0.1000,0.2000,0.0100,2.0000
44,go,Hit,1,0.6300,"[0.0, 0.013453416465654741, 0.01713979189252809, 0.05489735395076717, 0.027703169846904754, 0.03214947586685909, 0.047509344730433084, 0.06752952183921222, 0.08410921501309601, 0.1014413847229593, 0.10079947149009788, 0.09734302473960078, 0.09813080655238128, 0.06309482586550458, 0.07641183209060827, 0.1003544179687122, 0.0948816896386059, 0.13958236084048561, 0.11693424622780627, 0.1262759104063018, 0.1443978239342499, 0.16611296195448505, 0.18551919571223044, 0.16581023012036816, 0.18382722508211924, 0.20452359688329314, 0.22046405000599859, 0.22320781906153345, 0.2610640863093913, 0.27501992639420997, 0.3281935315293998, 0.33718779793019144, 0.32191919123457047, 0.32525583355080084, 0.3272415133158062, 0.3507543523910186, 0.3625370232288799, 0.36709128550228565, 0.3351732294890314, 0.35714094359839044, 0.35059709822871216, 0.31077297622911004, 0.3601505032831324, 0.3850810309846549, 0.40849241392516406, 0.4184015176364607, 0.4348394182002761, 0.43944138199411487, 0.4564343920439146, 0.4822565981567931, 0.47500345838890945, 0.4739081451177382, 0.49034500717103247, 0.5138473291612952]",False,0.8000,0.2000,0.5000,0.1000,0.2000,0.0100,2.0000
45,nogo,Correct Rejection,0,2.0000,"[0.0, 0.004315955286333543, 0.00535087123863789, 0.005350163971280419, 0.026488188875190343, 0.042146891270102196, 0.03611373798622242, 0.03740569257685615, 0.07221550722945094, 0.07568698336558793, 0.10081786533098056, 0.11330139017546481, 0.10791074856672536, 0.15589292220930445, 0.20349972242772918, 0.19303958384019554, 0.20863135246934747, 0.21492175564919205, 0.23550997416274552, 0.19518692267922683, 0.1753963848845281, 0.16849319310096655, 0.15708778656467837, 0.13618612932795654, 0.11814954769384794, 0.12157984622595912, 0.13770201792419612, 0.1180967215002614, 0.10405291222688691, 0.1228212715190775, 0.14047439129059358, 0.10657322228598379, 0.08735797638049458, 0.08201759597946964, 0.13374248120020144, 0.1485640764811695, 0.11660612575580219, 0.10368054241290521, 0.08368522004262118, 0.059817313386810435, 0.0501569141567832, 0.08168345491216014, 0.11465107137064998, 0.1051482781695823, 0.09160099260550206, 0.08624029267540373, 0.12578294785732916, 0.13406810224096855, 0.12500935098228066, 0.13430665293457883, 0.11803593812247286, 0.1197834058510708, 0.12997622169367037, 0.15335769464932494, 0.14496222527994476, 0.17440487191371357, 0.19991327071761114, 0.2159418991452322, 0.2193270349915908, 0.20047803905713577, 0.19548238988520547, 0.23462229763827191, 0.21897879519858676, 0.20106187653271732, 0.19509544978594534, 0.2014480272488661, 0.2299310440406692, 0.27321482427246246, 0.23933815129258906, 0.22202176944723223, 0.21378798112884112, 0.19855365259753469, 0.22047627614583545, 0.23694830676362158, 0.2399503236881836, 0.23877444750547505, 0.22864444160687392, 0.2470525752715085, 0.26448762327210373, 0.2521837734024779, 0.22659838286430525, 0.24234497868156246, 0.2491872377502632, 0.20792859013324136, 0.23167090899089232, 0.22560758730962885, 0.22694044137490368, 0.2473257275837235, 0.2792079712612235, 0.27975437263953945, 0.2910785506493474, 0.33736899617338395, 0.30340813328685773, 0.2791870357225444, 0.2914648285901763, 0.3062216209808307, 0.31195074833352365, 0.32596198027305534, 0.3562616905808904, 0.3862113284147948, 0.3771104736879449, 0.38710220816146135, 0.3832806484496439, 0.4011311677349353, 0.41361947497137036, 0.40904867494583286, 0.41932178066029424, 0.40731523641625983, 0.4319944881673927, 0.37807806721515647, 0.37126318039841616, 0.40894066824896763, 0.41611917655826725, 0.3982064509812916, 0.4126967890157153, 0.4362148367110469, 0.4317525435356675, 0.4129550200614432, 0.3983058794493631, 0.3786802672681654, 0.36641222193622025, 0.36181701588380555, 0.33511573894743624, 0.3640479909573997, 0.37401039548016407, 0.3544762975198054, 0.342583141885143, 0.3176979123206577, 0.3230641676456284, 0.30275792090338416, 0.2995932152236951, 0.2822490823372809, 0.2642689022365658, 0.24322992146614478, 0.2078654349173697, 0.2020491094003342, 0.19746543964701518, 0.2268135211339739, 0.20095208984342677, 0.20928873759040137, 0.2020557120168663, 0.2011134282838706, 0.20492318909566085, 0.2430473292619581, 0.25759578260458327, 0.24229557381616437, 0.22547986161591596, 0.23419184590144881, 0.22031356237788347, 0.20459966565397525, 0.2274201638173422, 0.22193480255349604, 0.25140907638412946, 0.25418010808392194, 0.25437680201008345, 0.22636965027658637, 0.1766145491857046, 0.2025547993640254, 0.1676484120609133, 0.15801462310082415, 0.1644346347669463, 0.16774889758724257, 0.19467275534871872, 0.20996466040549144, 0.22893701954488477, 0.24933462783444563, 0.25583235807493043, 0.2497679091925567, 0.2623125595874975, 0.24733105046276832, 0.25511134149882564, 0.2754580154429558, 0.2758675603753078, 0.27307360192355157, 0.2842200171128834, 0.3224495788148558, 0.3219651331981633, 0.3290982926667204, 0.34339023235353533, 0.34581655511518133, 0.3634702343984669, 0.3382654479315089, 0.33237598489010234, 0.30898961530654095, 0.3379178328241673, 0.3239913960770435, 0.32626686607399097, 0.3371760148121363, 0.34060527696954, 0.36001573909983636, 0.38646715415362337]",True,0.8000,0.2000,0.5000,0.1000,0.2000,0.0100,2.0000
46,go,Hit,1,0.7400,"[0.0, 0.014544023633550906, 0.027618656463808115, 0.08735000307034502, 0.15336630069058768, 0.16556712509724056, 0.17158495960580475, 0.1530410463839879, 0.15571715133588596, 0.16061583290992, 0.18408259656199916, 0.24964869337086557, 0.2807849338232092, 0.27337826168785395, 0.26846557300934937, 0.24731800038713714, 0.2655109528355635, 0.2475661115203449, 0.2619966390517211, 0.2663917605449849, 0.2674620184701387, 0.2960616129194715, 0.29898533424786244, 0.30536390999243473, 0.2907195260347428, 0.3019726089926033, 0.2944995266265306, 0.26764285154723283, 0.2649259450021934, 0.3064044849685053, 0.3007956434580265, 0.3068317760946689, 0.3408045698208309, 0.37564208505999264, 0.39092962708477685, 0.363221290399396, 0.36588591938126624, 0.374396010006335, 0.3977595639209651, 0.42459868595491435, 0.40801908779843205, 0.4098372390937233, 0.43450639919369966, 0.4128018713810788, 0.411400266365839, 0.39471254171337017, 0.40192143011168446, 0.4067534880740459, 0.42878465138765365, 0.4518162205100281, 0.44742277636323086, 0.43495397207229747, 0.41458264486618773, 0.42054321161975544, 0.41664615209767314, 0.41652408177316397, 0.38159574974598987, 0.38366236779418944, 0.39557572822082454, 0.42103769147609055, 0.4407672425870133, 0.4719248699299209, 0.492058882667928, 0.4965281675004384, 0.5064543879664353]",False,0.8000,0.2000,0.5000,0.1000,0.2000,0.0100,2.0000
47,go,Hit,1,0.6100,"[0.0, 0.002221610464173425, -0.016684317442196794, -0.026823194910903576, -0.017023995790631727, -0.000799541921293466, 0.004190972346674154, 0.018684129233452827, 0.048949175991470674, 0.08415518576256206, 0.10076932497447334, 0.10442491650672389, 0.12755887538851404, 0.10248967644639129, 0.1162312395958684, 0.11228610969696887, 0.15230622445317527, 0.1583574011635632, 0.1806646753172751, 0.16866088962260592, 0.16618018434230875, 0.2036917537715005, 0.20655827920149344, 0.19978631140023081, 0.1930420051897293, 0.2006116830849962, 0.19494082458828085, 0.22143840073964985, 0.2084152779109086, 0.21634771104691128, 0.22874395933489355, 0.24240682025797214, 0.22862529435967463, 0.25094084889570833, 0.22760943057680016, 0.24018631094663634, 0.24114964806462963, 0.2537329134400796, 0.2773364388692085, 0.29926843209937704, 0.3150829315669917, 0.3290554043317875, 0.37620783971934335, 0.40176643641882753, 0.4258595210338372, 0.44947910579813344, 0.4478485610160045, 0.44246547054734287, 0.4445256012525843, 0.49190123823211046, 0.49608863057127583, 0.5135035589430219]",False,0.8000,0.2000,0.5000,0.1000,0.2000,0.0100,2.0000
48,nogo,Correct Rejection,0,2.0000,"[0.0, 0.04004449870596788, 0.021694071495223965, 0.042539251728885216, 0.02430822148776417, 0.010630791444310617, 0.01523693708948697, 0.006950056188821562, 0.0031925434603005546, 0.012123538175385449, -0.004855116161694952, -0.027220385364406942, -0.018947396349983617, -0.02205175741216021, -0.0008053682792396148, -0.005714921036110789, 0.02839494747585169, 0.059615202554375205, 0.010258268506416708, 0.0260091482362907, 0.009399082919704965, -0.02137561507436828, -0.03059763873455367, -0.04998591242855897, -0.051607306293586244, -0.06394949782561118, -0.06625379631134136, -0.07400803420617323, -0.07307786967034478, -0.06165654262007054, -0.026971855713384466, -0.030342764009712107, -0.03905492951453374, -0.00036494327313780356, 0.020390955897795885, 0.04497592018983938, 0.05272683433952888, 0.042930397436885884, 0.03351746195183517, 0.0443869304278858, 0.007932745410883818, 0.03202965627301496, 0.07307807802179635, 0.0691566244262801, 0.07049308774784244, 0.0664471613786471, 0.1085792162040905, 0.09443801500322763, 0.09648380246018878, 0.07007971605127634, 0.07676045783557095, 0.08592256324574257, 0.0876662501273551, 0.08597684401503349, 0.094677846627629, 0.1186530109242801, 0.10615288610922582, 0.11369339358002262, 0.11523032245316572, 0.11547849949299892, 0.12289043304279237, 0.09450383331090126, 0.09872292480308946, 0.09464354842554296, 0.09178646031860159, 0.07185240050733417, 0.08262042941934152, 0.09340842142199321, 0.0781970179390159, 0.05877594714674432, 0.0457979425805957, 0.009435060592515185, 0.05049092360627452, 0.03920872863794386, 0.023315661856293232, 0.010027257513706743, -0.011262331419188967, -0.04100391389940254, -0.02948324000841028, 0.011039310883452433, 2.1864816211280766e-05, 0.007348882017657441, -0.012362815560843973, -0.00021228071920730875, -0.015582647703872686, -0.07320189115009768, -0.08031904968220274, -0.05895968390918232, -0.02289067420661342, -0.030491042639201046, -0.051288234184924716, -0.07369293949518449, -0.060396305079491994, -0.07867379473156152, -0.0959662317798531, -0.12383407224622148, -0.1306894622631982, -0.14221932394144388, -0.14608502933335965, -0.13133389520376965, -0.10847903063644818, -0.08994726359925322, -0.0928070771302695, -0.07879349139973457, -0.13964754870165197, -0.14001560526474754, -0.1688162727815891, -0.1871492509688943, -0.19694250507097522, -0.2422235392188945, -0.2461490399537395, -0.2456554078245551, -0.2642161125946153, -0.28059039231883853, -0.2304986186225327, -0.25168505961478965, -0.25511706231078213, -0.22466951066967927, -0.22840688903949333, -0.21847120499011488, -0.17876694785579872, -0.20161530555584795, -0.21069969955308257, -0.20870293691090192, -0.18493785623388834, -0.1955145852481499, -0.20008731266128088, -0.1817881537354369, -0.17537536327257916, -0.20201632272192074, -0.19841675111311166, -0.20628759162037144, -0.19625650052148427, -0.1709208393192578, -0.1576145440117837, -0.17588791939583193, -0.16251314263862435, -0.2062615870466508, -0.18723304525852794, -0.18161892064249163, -0.1950266411900149, -0.20381007497103215, -0.22897122418752566, -0.20301095259272348, -0.20873427246425338, -0.22583748472535609, -0.22332303088523472, -0.19677713785010473, -0.22668029142070847, -0.23457038766354277, -0.2417237502809584, -0.2344281914409474, -0.2543995820575524, -0.22112974361203552, -0.22529985283208243, -0.264720942769147, -0.2684850632861656, -0.2995033053303586, -0.29998782116237027, -0.27195728330711955, -0.27003279331262264, -0.28913685324961375, -0.33775102878370916, -0.32794923596808206, -0.3037166080394667, -0.31626937320704823, -0.3531760189504915, -0.33456222315990314, -0.3294311958793637, -0.35180800007586394, -0.36858903289512096, -0.3403856665624745, -0.34537131706981844, -0.3434441622750408, -0.3032315798221761, -0.3020490990994641, -0.31577311256504, -0.3533702439110249, -0.3743972026388037, -0.33299822575692944, -0.34838818442077524, -0.3647426818884665, -0.3501418602806331, -0.3788653941830943, -0.3286809483657594, -0.31839791281833524, -0.31522492586940637, -0.3352550168355848, -0.2993305805623347, -0.2829038519593642, -0.3050241354038753]",True,0.8000,0.2000,0.5000,0.1000,0.2000,0.0100,2.0000
49,go,Hit,1,0.8500,"[0.0, 0.015913216941821226, 0.015535928171417938, 0.042046133843304946, 0.038408811239671825, 0.05620205048083933, 0.08898021786789317, 0.08020234070807129, 0.08097119036675221, 0.05644137186188866, 0.0956508036248137, 0.07285840806196239, 0.044690001954699646, 0.04911859005468431, 0.031908906286360145, 0.04890690298363944, 0.06375764096229747, 0.06906422577325302, 0.06726089324424671, 0.08225628995913066, 0.11057601188558717, 0.07664131091794776, 0.08304034111432249, 0.09988439570452579, 0.08442439229546223, 0.0911500547638986, 0.08638251353701083, 0.0753125385302221, 0.0683147070283166, 0.07077698683472868, 0.08857741953469785, 0.1275596521480437, 0.11386181709677493, 0.11266961361981068, 0.09852861041261318, 0.11159585935168478, 0.13799743713225318, 0.14122847934513977, 0.12024607058869513, 0.1488586681868204, 0.1623198927240008, 0.18316841925304123, 0.16899459692271052, 0.20365497707708263, 0.2159890358986552, 0.2361302836779212, 0.25111149139481154, 0.2364908463122603, 0.23652844277956406, 0.24002524084736307, 0.2530444735650973, 0.2909285762151246, 0.3247051295620548, 0.3528316653755044, 0.33508842446042575, 0.3363319209044563, 0.33737891464070263, 0.35638278229973863, 0.4132175289075178, 0.4190238502848154, 0.39642495644418363, 0.4068043232577529, 0.4019184873306081, 0.38900678601855954, 0.3537811984043644, 0.39364539161165113, 0.4041438139680125, 0.3818732293363111, 0.42448218273514493, 0.42092360734945894, 0.4456555027035003, 0.4335682156134075, 0.4557530442438276, 0.4969043083684595, 0.49754007098764363, 0.5188757774369273]",False,0.8000,0.2000,0.5000,0.1000,0.2000,0.0100,2.0000
50,go,Hit,1,0.9900,"[0.0, -0.015555357034938301, -0.028375003619231388, 0.012746500087454305, 0.0025368227423444266, -0.02543083715143481, 0.003020858436213643, 0.013020315846739832, 0.03508402643023849, 0.03792435580372718, 0.030878162602521436, 0.007480590902839507, -0.004955683040723587, -0.01048481234926599, -0.03393990809975804, -0.03896976476206579, -0.04171690957296178, -0.0532238153717091, -0.02119844060069194, 0.0036301301758579797, 0.023381200356712675, 0.047764713368636635, 0.06237674802034061, 0.03577356829222536, 0.03535580695423744, 0.0393904162292453, 0.06171581674015346, 0.0738485551109848, 0.086691370642804, 0.11361297030893736, 0.13105537714266208, 0.14242695260045052, 0.12448712224871133, 0.1457813959676928, 0.14824086960300106, 0.14001021469300487, 0.13549177730454215, 0.14357784503048807, 0.1452888304340607, 0.15474610498944175, 0.1748013071562831, 0.17792353829182925, 0.1940768181443766, 0.19123207298237954, 0.18708870926728816, 0.2179251335491752, 0.2229836901849825, 0.26101910012330376, 0.27092141593155616, 0.2681489260946478, 0.26642617768771387, 0.24802842057710592, 0.25171638147024145, 0.23981642911444911, 0.2329895554358852, 0.21773451432949473, 0.19382595982528736, 0.20119896553596742, 0.230917210162522, 0.24580595866458968, 0.2630875868341021, 0.25976378008901957, 0.24842254612087533, 0.2547062660554432, 0.28946571976306373, 0.3212387913676003, 0.3216919109578588, 0.3148035207347613, 0.3441038722522549, 0.363764293074724, 0.3928456567095201, 0.3989530355722942, 0.35045476479912485, 0.37437304463698334, 0.3798145624185249, 0.39569261907671943, 0.37477202144277666, 0.3843671584880571, 0.4016757166975357, 0.3959677097001221, 0.4363852697029873, 0.41617021227225937, 0.4159907609476809, 0.4411032245800089, 0.43505823904187235, 0.4396187498129885, 0.4490699526623623, 0.45217420366187827, 0.4963488445212952, 0.5034924076865797]",False,0.8000,0.2000,0.5000,0.1000,0.2000,0.0100,2.0000
51,go,Hit,1,0.5900,"[0.0, 0.02757200910574557, 0.05326462516285539, 0.07540968934791939, 0.0831167549538637, 0.10807517305800539, 0.13765608274296257, 0.13176188594342064, 0.1504186532079431, 0.15049662095812305, 0.15524978856637234, 0.13690572548797222, 0.1677515143551725, 0.1833680008623904, 0.19765942890124827, 0.21431601846978238, 0.20179046343884427, 0.2106539022192437, 0.2558890914043936, 0.29018013338941495, 0.2587984024860551, 0.27847767250419525, 0.25098479363774306, 0.26810551235726937, 0.2629566963134814, 0.2805384419998536, 0.2900750321777819, 0.25720344071788126, 0.29785546335354274, 0.3319208981773537, 0.33057017250389137, 0.3281169787775099, 0.3463129871568189, 0.3340575696464462, 0.34114245079887373, 0.3065081009616409, 0.320046932132655, 0.2946684553585701, 0.31883718602203553, 0.3402395488879424, 0.38057891184397624, 0.4025252318163613, 0.3948901387780821, 0.41926514315359886, 0.4241445344424421, 0.43109693277141053, 0.4208831942609898, 0.44567807264895704, 0.4911671201631476, 0.5274787536800222]",False,0.8000,0.2000,0.5000,0.1000,0.2000,0.0100,2.0000
52,go,Hit,1,0.6600,"[0.0, -0.022473647688763584, -0.04014896006899373, -0.026133755127596532, -0.0060543425706587085, -0.015273420329102443, -0.06359330693008744, -0.07153729801445638, -0.07073042831932651, -0.03871992628424759, -0.04059652733407877, -0.022903175796188675, -0.02255405798639968, 0.006646955120131956, 0.013150274889653028, 0.02640825697726343, 0.042513677782899786, 0.007305150048156371, 0.015606666366633921, 0.07278286971615452, 0.08833250910781909, 0.08493385974763079, 0.07429792799104046, 0.111826081196651, 0.13628632248369332, 0.17098268142143003, 0.19159650683766227, 0.1695633570509646, 0.2215266579835456, 0.2559130735089105, 0.2671243934049057, 0.25825196743619794, 0.23996623382858584, 0.2147162885544715, 0.25524496807230473, 0.25956557452183243, 0.29202661495633114, 0.2936322743766102, 0.2676116045673747, 0.2743919556551458, 0.2830060129494734, 0.28321102136078175, 0.291931790404529, 0.31718783663011035, 0.3682146238134725, 0.38944174326755576, 0.41185683237568577, 0.3995871016985838, 0.3885430221329587, 0.4143875407190863, 0.4393070604264667, 0.44917584953406337, 0.4464885986223284, 0.46409247412853133, 0.4668448305846966, 0.4842983215922895, 0.5082824435867177]",False,0.8000,0.2000,0.5000,0.1000,0.2000,0.0100,2.0000
