trial,stimulus,outcome,choice,rt,trace,timeout,w_s,w_n,threshold_a,t,noise_std_dev,dt,max_time,affect_stress
0,nogo,Correct Rejection,0,2.0000,"[0.0, -0.02482045284244725, 0.016069566017349962, 0.024739268971100757, 0.023860528083636267, -0.0010321757922260137, -0.023597035641100893, -0.037318364165070284, -0.04116169761648828, -0.08671700094489902, -0.09129507890610926, -0.1325474890730289, -0.1405230647591621, -0.14326864233407388, -0.14903066702758352, -0.16418077830354458, -0.18309390790285437, -0.17497240080799928, -0.2011368636114388, -0.24500194042897472, -0.25116130471299214, -0.23820752477933227, -0.20761646170488127, -0.23492000597157478, -0.24839384746423443, -0.25454252893276796, -0.2828598203906324, -0.2840592014983809, -0.28663550946512634, -0.2693267661511867, -0.27879024996595136, -0.3014889749607361, -0.30567319245225366, -0.2838076110345701, -0.27054939286092455, -0.2842198896568464, -0.3244248034891154, -0.32193843248748066, -0.3323367166640285, -0.34279837545754244, -0.34269385919291656, -0.3492852658869883, -0.33331357988225324, -0.39277925265237135, -0.38539564568162926, -0.38299539755046413, -0.39961451068676723, -0.38487453656447385, -0.3808114228403174, -0.43029899353374457, -0.3877200224319324, -0.3752956507942923, -0.4006218259388671, -0.46151170766599475, -0.48737553809970846, -0.48772532834011845, -0.5206066466200406, -0.5385858007599783, -0.5378181673920694, -0.5305277054675372, -0.5297964394934955, -0.5144488774522182, -0.5355327156542732, -0.5473162445213615, -0.5736687948231756, -0.5835232616627515, -0.5827096115619753, -0.5966279128335045, -0.6061269848111751, -0.62612063735484, -0.6406488099634762, -0.6321681917525288, -0.6316742830083004, -0.6645843678586537, -0.6919826696927556, -0.6989519550326603, -0.6819802922365077, -0.6523989937967086, -0.6619672977186055, -0.6869985731138406, -0.6616897022745565, -0.6491057135370306, -0.62416275209902, -0.6253054632584382, -0.6377874969435755, -0.7064252924913883, -0.7044543125831916, -0.7190908621352214, -0.7229530831646983, -0.7360644881743356, -0.7583987735478049, -0.7665235085531122, -0.7350537005307968, -0.780197769846781, -0.7841809855186183, -0.8043236193003266, -0.828572866962156, -0.8416414876137046, -0.833669577226366, -0.8472981375531023, -0.8939290179750529, -0.9224444481070043, -0.9243491448695138, -0.9284257954939523, -0.9179184027152268, -0.8980284911277285, -0.9360716842353183, -0.9398861127250128, -0.9104031686612992, -0.9231340004403077, -0.9333509319861979, -0.9386590581918728, -0.9966404029459777, -1.0164378318762923, -1.0065830898035848, -0.999037786682176, -0.9904437522308877, -1.0017702777033908, -0.9846226689764747, -0.9708304036978607, -1.0028461408056546, -1.0237259353455352, -1.034956513563398, -1.0310408382299066, -1.0133841103862442, -1.026474451172615, -1.0247626786973925, -1.0522606400380523, -1.0642206333815547, -1.047795848387502, -1.0570517401730093, -1.0643453758522845, -1.074575686126281, -1.0955925272983313, -1.0763431597483184, -1.078021336384076, -1.1139251679690756, -1.1650271380479176, -1.1911127797909182, -1.2284568221344838, -1.2126650164725197, -1.242891718731744, -1.2087311134965832, -1.2217374011857625, -1.2489547348169714, -1.2902229837961081, -1.3015039047012127, -1.3113292208868692, -1.3341834697768262, -1.3590892258137568, -1.357956087954467, -1.3374926564273042, -1.32439305192452, -1.3194214365055565, -1.348448528408298, -1.3439102093393034, -1.3571524875369105, -1.3584504466430232, -1.3788063503308239, -1.3826694682564313, -1.4016895350780336, -1.3610828780969977, -1.3591144141633937, -1.3698170533002612, -1.3301730221802588, -1.3429669378025115, -1.3795025304597432, -1.3870544704070278, -1.3621938326308183, -1.3719304745660432, -1.3498596378280374, -1.35928043954104, -1.3500662688155496, -1.3224527527450416, -1.3464349608714234, -1.334595028248071, -1.3410773745588105, -1.3375963566857183, -1.344302332688179, -1.354275171542252, -1.3823700019490746, -1.364541299343209, -1.3447997955056816, -1.345765658169904, -1.3561658952193878, -1.4009086347266484, -1.39721351469692, -1.393337913885254, -1.3855995287397218, -1.4289390783633673, -1.4463736053650809]",True,0.8000,0.8000,0.4000,0.1000,0.2000,0.0100,2.0000,True
1,go,Hit,1,0.2600,"[0.0, 0.03450352430540369, 0.024819102556771822, 0.023934861374963548, 0.0022990491634465697, 0.006477314386973807, 0.011313601043248026, 0.007655514908758064, 0.02559210546460406, 0.01683894445609198, 0.045324467419470424, 0.0478450922463827, 0.06837761797429603, 0.0769871272041275, 0.08975640370555546, 0.09825985254372525, 0.11551056781746086]",False,0.8000,0.8000,0.4000,0.1000,0.2000,0.0100,2.0000,True
2,go,Hit,1,0.4200,"[0.0, -0.024053940502331228, -0.020749466576496303, -0.0023922779632302923, -0.0025920472696447094, -0.022679289172134943, -0.028617703506276827, -0.05754144683330917, -0.0306548568638351, -0.011664837336171772, -0.008558225833476731, -0.03272780853523312, -0.03022481151721985, -0.008879624186774463, -0.01390384418345528, -0.02379439924252859, -0.010510358688436656, -0.0076234226902411025, -0.01205143838607002, -0.008992440918785996, 0.0010664926359718382, -0.011073375184896003, -0.017279628461776626, 0.00383185167612066, -0.006799450979991208, -0.007162853570274515, 0.008741772761719717, 0.013027046235699294, 0.00824005823000183, 0.016199894000137258, 0.07263891462848171, 0.09287988237459346, 0.10778882665014103]",False,0.8000,0.8000,0.4000,0.1000,0.2000,0.0100,2.0000,True
3,nogo,Correct Rejection,0,2.0000,"[0.0, -0.007383621206116246, -0.024875785349215147, -0.04636128194840331, -0.07167487412284643, -0.08284368404304521, -0.1015874838291338, -0.11349929135072406, -0.13707955928487955, -0.13712990810982406, -0.11710723369104026, -0.1328741982167691, -0.16212641027612196, -0.17125313238852577, -0.184857006052503, -0.20349335277172326, -0.20945359702037464, -0.17306602081892625, -0.18369611231971336, -0.19558230941172686, -0.20576924187808696, -0.24237717280004017, -0.26275861138726664, -0.24386574798868124, -0.2475610689353121, -0.2561502110845917, -0.2613829925969111, -0.2677951241785011, -0.2675722359553613, -0.25871174758692633, -0.2616232558819469, -0.27290715431968243, -0.2830357566012217, -0.30123596598096286, -0.3287600462467337, -0.3507596375138558, -0.3750729632211565, -0.3876618533918386, -0.3746188768325758, -0.39854273144086294, -0.40733331426460284, -0.41942667950985013, -0.4394204966119871, -0.42523796468690583, -0.4392313192915119, -0.47114384224431516, -0.4462582296828581, -0.4299679757790527, -0.4321912242399821, -0.4437220361385402, -0.4941318925634952, -0.4723220490033604, -0.47217828093327885, -0.45598142330961816, -0.4283862246523642, -0.4336124029448831, -0.43155680469107555, -0.41574154196981034, -0.3922603516856225, -0.398768713203694, -0.39321346679981184, -0.3829354378752564, -0.36017344768522097, -0.36203339055279377, -0.381735299425896, -0.379418089356323, -0.34961475235267525, -0.333808043019114, -0.33189804484117, -0.3495950747269957, -0.3367268243226918, -0.34941499726584807, -0.3594473588744281, -0.37251239570617156, -0.39245969106646966, -0.3858241267417711, -0.41331959335723967, -0.37813402463088525, -0.3659762744860793, -0.3690837649674587, -0.3970173224279726, -0.4280367941353569, -0.4217203176073069, -0.4476321282884118, -0.4570054627109034, -0.44339783623859963, -0.4274096354289165, -0.4363345281794643, -0.4475733000766363, -0.43103248181136744, -0.4629703461314968, -0.5230358149183578, -0.5032116963156672, -0.5217513578093863, -0.509566077668815, -0.5231677092700194, -0.5392471390244769, -0.574960314300923, -0.5848993446596603, -0.5780174537064623, -0.6059942010315643, -0.6384525375699671, -0.6669129327687195, -0.6915269577908852, -0.7008688493211234, -0.7059471922483671, -0.7319969785161533, -0.7502888779661705, -0.7646580256969229, -0.7846480923887824, -0.792746345022684, -0.7911701819324073, -0.8130508642860821, -0.8356597546936002, -0.8500855759208437, -0.8634596975504942, -0.8846406000173244, -0.9153228345845905, -0.9449241190802578, -0.9827793830113403, -0.9922385426414481, -0.991979153828332, -0.9885888330206055, -1.0165701529838294, -1.006355255797695, -1.0073239572085884, -1.0112718134279282, -1.0277572490490148, -1.0353289366168732, -1.0067990707227656, -1.0234579925893186, -1.0271756763955104, -1.0834302348477756, -1.12495523966014, -1.1097819332205205, -1.1063590805031132, -1.1133028457607566, -1.1116344778921323, -1.1523257714752404, -1.1681232194427014, -1.2004345490952044, -1.1967980064897017, -1.20450693880389, -1.1992909747641232, -1.2360688505380164, -1.2697707005630134, -1.2782479007845065, -1.2936240396992083, -1.3041560682034086, -1.3230342409479439, -1.313396109104915, -1.3116870087116999, -1.336870626604882, -1.3625462267574118, -1.401363882300318, -1.382252572462385, -1.3503195182367789, -1.3434503441013304, -1.3620847147765773, -1.4207730410928376, -1.4476129043025048, -1.4491254440305341, -1.433183261465434, -1.4395514108401029, -1.464652731276983, -1.4771757219932065, -1.4853388499285094, -1.483068477356985, -1.5432903231269177, -1.570285691620059, -1.5709577008103828, -1.6153079827734629, -1.6430208300100073, -1.6624367268888482, -1.642518887787612, -1.657629575406931, -1.6768676033058696, -1.6897814105110822, -1.6980422411960727, -1.6775308131922302, -1.6945596026218086, -1.6619983376869145, -1.683682811559261, -1.676867855576306, -1.6304744361268726, -1.6784620642736774, -1.6810138514664574, -1.7262467607136418, -1.724004169153424, -1.7525170715590423, -1.7715847418396937]",True,0.8000,0.8000,0.4000,0.1000,0.2000,0.0100,2.0000,True
4,go,Hit,1,0.1700,"[0.0, 0.005667106398843058, 0.04812546017111532, 0.06356168701117193, 0.08176768053621225, 0.08361917854756484, 0.07739374021990206, 0.12841694152131233]",False,0.8000,0.8000,0.4000,0.1000,0.2000,0.0100,2.0000,True
5,go,Hit,1,0.1700,"[0.0, 0.02878354089285209, 0.05272098142072151, 0.09225534291291834, 0.08918779714504531, 0.07326417415855506, 0.09236730140200247, 0.10141614981286515]",False,0.8000,0.8000,0.4000,0.1000,0.2000,0.0100,2.0000,True
6,go,Hit,1,0.3600,"[0.0, -0.0146848693194268, -0.043745056790198175, -0.04471847209559304, -0.0506433277595436, -0.0017505008734776117, -0.00375095491160847, 0.0010278989681830972, 0.034030595480649, 0.05000910995929851, 0.03968481141184374, 0.050162746519201926, 0.041725009029412605, 0.04979979993395461, 0.0589677868947345, 0.05981203637903164, 0.03841444699920606, 0.07451456907300702, 0.05792725938037138, 0.05910390830857798, 0.07887090775081466, 0.09487816508857837, 0.0753108195503888, 0.0456526020197739, 0.03908689583406642, 0.07943260929542034, 0.11337524082737892]",False,0.8000,0.8000,0.4000,0.1000,0.2000,0.0100,2.0000,True
7,go,Hit,1,0.1400,"[0.0, 0.015030277028632279, 0.04064847577417506, 0.06708666678969631, 0.11970372087600008]",False,0.8000,0.8000,0.4000,0.1000,0.2000,0.0100,2.0000,True
8,nogo,Correct Rejection,0,2.0000,"[0.0, -0.013015852809600884, -0.001668785486064429, 0.028299416550400025, 0.027117912822446615, 0.031032565732817492, 0.029613927181488066, 0.017955316290781037, -0.008003434273400813, 0.006615567657036929, 0.0013126419318892244, 0.0006833953455783236, -0.02927616867727655, -0.018524108650211826, -0.019927156401868762, -0.021775946333727758, -0.005968702215971719, 0.01853595510835896, 0.051742931588415406, 0.06684215322499105, 0.01534478887134555, 0.013590057344339695, 0.02422528432194769, 0.03024956181949734, 0.02849693762072595, 0.0001844425062857702, 0.01627548329212583, -0.023206559500895292, -0.04552863152752121, -0.010342852295652342, -0.02874288032126831, -0.03963184816322081, -0.052691933197715375, -0.08383485859965145, -0.08014315328616493, -0.13163807446386727, -0.1642839914573583, -0.1872564181803514, -0.21111501620015583, -0.1998266048245166, -0.21702223553910419, -0.2474027455174299, -0.23039837973009766, -0.2265369974484476, -0.23391947888268746, -0.24165922066940107, -0.25745114063794944, -0.3029687951064106, -0.31430777827783724, -0.3077710541453532, -0.30950297847427527, -0.32358308458888946, -0.35453291570824697, -0.3693204838405845, -0.36652012437621156, -0.38477679398775344, -0.39135790572265977, -0.3857867931919712, -0.4127373935772655, -0.4415167480400069, -0.4634042480997382, -0.45148761325812775, -0.48313949935057904, -0.47754327169863126, -0.47690726694688607, -0.5044249865553666, -0.5001972549061617, -0.5223790926034187, -0.527028404229649, -0.5220086404829547, -0.536944801202942, -0.5101390713029148, -0.48387222254787954, -0.4933188081784313, -0.5462605989481903, -0.5693811909290115, -0.5767114200425606, -0.5426222788583006, -0.512877850646634, -0.5433438649383097, -0.5410759978154405, -0.528551348428604, -0.5244502369071735, -0.5511593506630094, -0.557366064911467, -0.5619447588038624, -0.5985040892289122, -0.6290387151947934, -0.6680283624619041, -0.6834049978830028, -0.7014820391794946, -0.7186323173973477, -0.7557404730186768, -0.7764998625614042, -0.7803047365182886, -0.7858511318580913, -0.7690729336716077, -0.7812396078977515, -0.8059164785504611, -0.8083153457903949, -0.8157874368026027, -0.8234535070771548, -0.8308723377526872, -0.8263845052935586, -0.8359646452410283, -0.8405122833964088, -0.8465785854721359, -0.8523090483768871, -0.878434007934769, -0.8671744395405007, -0.8589473266655907, -0.8877080817094605, -0.8885663178286858, -0.8826350278485088, -0.8849024310850914, -0.923400345231754, -0.9003203854795143, -0.8799695717486216, -0.8839825179317067, -0.8472073529924825, -0.8808715033517664, -0.9149193814968923, -0.9101600194451169, -0.892169900086354, -0.8988524995357866, -0.910682893342277, -0.8790754548222798, -0.893176432747171, -0.906397025037901, -0.9421275972632741, -0.9687039651185853, -0.9876472908619798, -1.022117468916168, -1.044936715513996, -1.0886426328817447, -1.0943816747220907, -1.0756976420793816, -1.0688352910482082, -1.0763410788482661, -1.0638442733737004, -1.0821196209763717, -1.0987899155272862, -1.070062594609946, -1.080378808216289, -1.0615714350467162, -1.0358630065664842, -1.0263201430799747, -1.0382623766843937, -1.0422817756497667, -1.0814630775832295, -1.0667165871198432, -1.0569779468781764, -1.08243973410345, -1.1179076437756092, -1.1542779437046764, -1.2097240012338584, -1.200383040248829, -1.214161574493479, -1.2193492245559443, -1.2194998723339157, -1.244137567637371, -1.2574854993535942, -1.2474984541544678, -1.2209987436734133, -1.1875905141907708, -1.2039106926422511, -1.2106735071468335, -1.2150456346063592, -1.234396634413867, -1.2348723579741605, -1.2039581139330218, -1.1918806926398888, -1.1807166191165577, -1.2009421381111558, -1.180484837462576, -1.1999538076120835, -1.2124571366632193, -1.217085701768607, -1.2415150343532142, -1.2410505258773066, -1.2985029516777686, -1.3306024606244153, -1.3602483849488498, -1.3801827089917291, -1.3866442709266418, -1.3806821336032118, -1.3789127750773535, -1.3670201693201898, -1.3360315534870217, -1.3464226705965838, -1.355068464767774]",True,0.8000,0.8000,0.4000,0.1000,0.2000,0.0100,2.0000,True
9,nogo,Correct Rejection,0,2.0000,"[0.0, -0.07619661443863845, -0.05988457006195612, -0.0907394740690014, -0.11225644914036226, -0.10944333922020832, -0.09881524898968258, -0.09795434065038239, -0.08924637264977696, -0.1343364867451239, -0.14302683595721286, -0.1283982070282591, -0.1354582086937478, -0.19136880380215476, -0.22830403575811903, -0.2589536528473924, -0.2900872880395342, -0.2901531426863651, -0.33756318888285336, -0.3505653963314506, -0.37011828451919115, -0.363701891127351, -0.370046407327229, -0.33470113132538915, -0.33913133251601796, -0.3313601280128974, -0.3793146811035332, -0.3865337591187844, -0.3942933123055089, -0.4054656172622591, -0.3898792495527551, -0.3675700635589244, -0.3767684974019829, -0.3940415122442897, -0.4158004923246833, -0.44090517612400393, -0.46367848924644123, -0.4983178887433479, -0.4721312793094812, -0.49482280976544224, -0.4844944700878476, -0.4917967216263922, -0.4983997015245556, -0.5156987151468398, -0.5306305503262124, -0.5259406712611546, -0.510898810934096, -0.5442325208899154, -0.5138152280609737, -0.530203091043555, -0.49944093230256537, -0.5333095535774394, -0.5680294991991159, -0.5887506040073462, -0.5990984274177086, -0.6183988555472105, -0.638131893412941, -0.6756018127204342, -0.6888811304067287, -0.7037236068343735, -0.7181824382153058, -0.7408765097147996, -0.7606644706060216, -0.7371683949957579, -0.772674026198906, -0.7889565492648887, -0.7938353627169885, -0.8201211739105768, -0.8245989876154641, -0.796523179049359, -0.8197526666304977, -0.8478819665293037, -0.8532073234842079, -0.8709710953474095, -0.8742025980483552, -0.9023871383307971, -0.9071929909162029, -0.929872994466798, -0.9083785983470275, -0.9064397517756883, -0.8939380168267255, -0.886148169445409, -0.8928474025826532, -0.9080057538563331, -0.9170778113979049, -0.938615462847934, -0.9173696907364889, -0.9282933884299843, -0.9664183648249677, -0.978537905821394, -0.9970919532724445, -0.9821749317414391, -1.0069423453424997, -1.0271654986570045, -1.0030119507062516, -1.0169358882061805, -1.0195716529763892, -1.0205856562597844, -1.0402417840821956, -1.0485292956486754, -1.0356393116608136, -1.0369225989674231, -1.0222378431251058, -1.0222400990668343, -1.0047005818191523, -1.0175979854506887, -1.0342732514357043, -1.0444681042371529, -1.0005615114452067, -1.0284028118477346, -1.0415930912535336, -1.064366529229819, -1.0749734272694973, -1.0950436824413032, -1.149685864722866, -1.170195508610417, -1.1740621718916024, -1.2176729037295448, -1.2243247559110053, -1.2122061079144513, -1.177116473351501, -1.1891458183748218, -1.1992980587155135, -1.202476992963361, -1.2333191947639623, -1.2598000093702408, -1.2403594982830022, -1.2352827249140004, -1.242210795790479, -1.269632293821327, -1.287592951169125, -1.2960813782488754, -1.2978624193093635, -1.3259941745867097, -1.3497389287808563, -1.3865315481351073, -1.3942701985559698, -1.4044256740748093, -1.3969642469994124, -1.3833670185117681, -1.4269371418330592, -1.4502857121615305, -1.4884605464450544, -1.4790153392791923, -1.4791537104708874, -1.4885668424651555, -1.5149015793544238, -1.499636944929206, -1.5066215251726822, -1.5202151796468206, -1.5551119085023855, -1.5696713782256797, -1.5820650246975863, -1.596727310200891, -1.5914125793516007, -1.6089235593608975, -1.6010696748346525, -1.614274989738419, -1.5851250364784246, -1.6131993779800335, -1.6393046777433642, -1.6522552143429372, -1.6936935283150576, -1.702632478837322, -1.6990034772660922, -1.7251419064530609, -1.7368208469028557, -1.7256589648290628, -1.7121300958168182, -1.7420934475839422, -1.7287541697776139, -1.7050915556672686, -1.694623907592392, -1.7142029632769469, -1.727792345220606, -1.7477522663667036, -1.7455296703116583, -1.7523541532762588, -1.749729882212227, -1.762311361284683, -1.7890720517386285, -1.7967546476708476, -1.82153105865252, -1.83123820741409, -1.8216979588382458, -1.8348736922785842, -1.812701973385946, -1.8245800410625228, -1.8279252470832665, -1.841393606914604, -1.8298033977417005]",True,0.8000,0.8000,0.4000,0.1000,0.2000,0.0100,2.0000,True
10,go,Hit,1,0.2300,"[0.0, -0.028533366582893058, -0.013231666566860192, 0.04063034280479432, 0.04811815787489588, 0.057474687172333366, 0.06970522852788003, 0.07637707228037471, 0.05475566110620263, 0.05491639776822546, 0.06090386992376, 0.08102196342639288, 0.09028039194417405, 0.1201197759535027]",False,0.8000,0.8000,0.4000,0.1000,0.2000,0.0100,2.0000,True
11,go,Hit,1,0.1600,"[0.0, 0.02124583385704984, 0.024101884160455948, 0.04029902969388254, 0.08182201617701763, 0.08872008277795751, 0.11273760860163211]",False,0.8000,0.8000,0.4000,0.1000,0.2000,0.0100,2.0000,True
12,go,Hit,1,0.2200,"[0.0, 0.034216007536355966, 0.056282755338534676, 0.0626048600938984, 0.06753878903174702, 0.05536446194596453, 0.018711908863419995, 0.032329666721293934, 0.04661540299890882, 0.035937053167276814, 0.053428480713132234, 0.09971649256437036, 0.11748526335937554]",False,0.8000,0.8000,0.4000,0.1000,0.2000,0.0100,2.0000,True
13,go,Hit,1,0.3000,"[0.0, -0.0052214320184768796, 0.020175452914438223, 0.04800128177429508, 0.012143655083267209, 0.026523062019869464, 0.013815696640858056, -0.01111399750266976, -0.026989467781352788, -0.006328882275706705, 0.009134556620850338, 0.04664464573480213, 0.0738856938263881, 0.09019501518252404, 0.08004221231065403, 0.0790286852784252, 0.07339525198692713, 0.07506751387582068, 0.08215752371882318, 0.09419239400365186, 0.1184154927887408]",False,0.8000,0.8000,0.4000,0.1000,0.2000,0.0100,2.0000,True
14,nogo,Correct Rejection,0,2.0000,"[0.0, -0.03486999488031385, -0.0532247171813733, -0.08738229578265078, -0.11042821690557869, -0.12684360315284807, -0.13252160919851944, -0.13157433847300312, -0.17967650146382375, -0.1708320158548649, -0.13633272469521385, -0.1383138031775603, -0.14364029542987491, -0.14154114999594597, -0.1331065809258981, -0.14053000580631103, -0.143959004438292, -0.18858620844435917, -0.21109685928070315, -0.19524311107018383, -0.20429664955771304, -0.21303635773214438, -0.1826257610142549, -0.19022532826331295, -0.1831807025267739, -0.20002177993600048, -0.21185617370398097, -0.1851208712076186, -0.18924265898052434, -0.18127690816760186, -0.19561180160563116, -0.21672331809801934, -0.233116905273765, -0.22871655622141615, -0.2525741439510996, -0.24605965924263548, -0.2541322786453654, -0.267355263738768, -0.267060343364003, -0.26217662769199834, -0.26799116359282704, -0.2525710989994434, -0.245232819198265, -0.2671469690342077, -0.24125022336545687, -0.24485496769883308, -0.2596540884164344, -0.2584687049940344, -0.2498636895655748, -0.2789753006782071, -0.3096460427825745, -0.29250783664075825, -0.33495690243241777, -0.3165949367621098, -0.285354323272199, -0.32110951399592336, -0.33652989035719855, -0.32396731661106765, -0.3564361177832562, -0.3788224003523101, -0.40082320937223864, -0.40743656251761884, -0.4026230819631187, -0.40289979407062887, -0.4003835256936039, -0.39959040704286514, -0.4249627924916363, -0.44549780105603914, -0.428507721592226, -0.43112549762091107, -0.4014847975212242, -0.38846122895817514, -0.3781405194400667, -0.40502809520286204, -0.432800523825663, -0.44955301939711295, -0.4332268464993825, -0.457529914217604, -0.4466291563553426, -0.46068442320514685, -0.45891395489118475, -0.4920462879108191, -0.4673905646883294, -0.48801875823627766, -0.47895579115113474, -0.4616443889053903, -0.4307073552319534, -0.39233716795103835, -0.41097179456500055, -0.4035360771533098, -0.43978667905354957, -0.4624138718713613, -0.45412218770460255, -0.411624411565891, -0.4031145973825703, -0.41634046986836215, -0.45742514260304445, -0.48075289987221287, -0.4789898050907788, -0.4726011025680123, -0.47579261030564024, -0.4819914318663944, -0.4828157818221783, -0.4865757106863683, -0.4761698747725072, -0.48056847565357413, -0.475286604878566, -0.4740176115711851, -0.48938830663651145, -0.5193227995649571, -0.5560456299344438, -0.5264154002755604, -0.5595484818969692, -0.5375452274631669, -0.5286271963126424, -0.520617427665912, -0.5154364838553663, -0.5447188061459185, -0.5531981023029017, -0.5419040811121798, -0.5471320118818371, -0.5471282799446601, -0.5483492106333869, -0.5783663980922048, -0.5948855536214694, -0.6292405068779173, -0.6277866959766485, -0.6362888539599307, -0.6332461260115084, -0.6264069743073841, -0.6482790768676191, -0.654498992054013, -0.6626856364500504, -0.6619020702297396, -0.6983355029397181, -0.7069444440491492, -0.6972182918256756, -0.706671998119697, -0.7190520390389661, -0.7415007246325847, -0.7375855443522007, -0.742141600049927, -0.8013545224628579, -0.8098924671621035, -0.8195833893664322, -0.8128690052271155, -0.8071681668412173, -0.795511372240322, -0.8143642915305495, -0.7951859933699388, -0.7947260410027065, -0.8164728967344607, -0.8481369683971062, -0.873093726027947, -0.856671452808572, -0.8292799754030294, -0.8438090387326329, -0.8076789765600108, -0.814835549869478, -0.8272403706465239, -0.8222192257559565, -0.8342185487765448, -0.8273864457780336, -0.8567337603092269, -0.8556238116471473, -0.8443105464764358, -0.8681397689670203, -0.8554358299907386, -0.8415333704854541, -0.848765025351615, -0.8660564522469272, -0.8677741154584152, -0.856452993712068, -0.8469133090046103, -0.867238676591246, -0.8980475862110271, -0.8998809522697523, -0.9123043925129557, -0.9110969795137501, -0.9454149392889322, -0.9462593859136738, -0.9418897371733514, -0.9252906046019839, -0.955510501130583, -0.9831639511911157, -0.9838656871291207, -0.9852989948409997, -1.0134464734142972, -1.0243755688621885, -1.012832184226344, -1.02919196757796]",True,0.8000,0.8000,0.4000,0.1000,0.2000,0.0100,2.0000,True
15,go,Hit,1,0.4000,"[0.0, 0.006857362034327088, -0.0073493568108939445, 0.03209017369128292, -0.009205498686285805, -0.01646436204695354, -0.027719462655418442, -0.05873829360200253, -0.03766068867769807, -0.06284364671717206, -0.0656776172646289, -0.0662661523430556, -0.04705777379187258, -0.060270640267481884, -0.057326128576345003, -0.059716388396249695, -0.028479436664455002, -0.008275876501141241, -0.006439232636121562, -0.02568383061456291, 0.0011945817545974124, 0.013335838972991721, 0.02985862631455213, 0.03783647972415685, 0.04979084990877255, 0.04691945294097039, 0.09430383860290657, 0.09722018065312198, 0.09260214608200938, 0.08164476063503211, 0.10692229516827739]",False,0.8000,0.8000,0.4000,0.1000,0.2000,0.0100,2.0000,True
16,go,Hit,1,0.3300,"[0.0, 0.00043739093853607715, -0.01411647937932987, -0.006114506221859405, 0.017721330604212552, -0.02092921659907931, 0.005929152980023819, 0.02349350742018216, -0.01750829743946636, -0.04187438671145584, -0.01041113295631639, 0.007633928491448366, 0.0014191847885581949, 0.01849118645896112, 0.03169260883384261, 0.025674895073186862, 0.038208252249711666, 0.01268062589811176, 0.020534204644103625, 0.01685408296852988, 0.0636260161182603, 0.06775977869561951, 0.09314023190427151, 0.13673691091686777]",False,0.8000,0.8000,0.4000,0.1000,0.2000,0.0100,2.0000,True
17,nogo,Correct Rejection,0,2.0000,"[0.0, -0.005669428326157081, -0.0015102408380659998, -0.04407453261987589, -0.02832166481652046, -0.05380640046363438, -0.0520641778043644, -0.044307570683307124, -0.06861761330002505, -0.08476520319062446, -0.08557856781998961, -0.10511210817999242, -0.10448274345013256, -0.1143381760071367, -0.12247581808454391, -0.12196587339397812, -0.16136994971794566, -0.20332115528911565, -0.2067118046211772, -0.20406266200701934, -0.22376806483056044, -0.2398660096390866, -0.24306130103181842, -0.23923917038280573, -0.2806388923866783, -0.3009001796683523, -0.32361940979979836, -0.3381145359113056, -0.3375028920109827, -0.3424711380399698, -0.3632314756625755, -0.36691702868940007, -0.3653021094011857, -0.3925593052682365, -0.4065678216698228, -0.4067360441331684, -0.44553895423973233, -0.46070484820909624, -0.4633523943715946, -0.45753873198775635, -0.46403261272666474, -0.4766345835927169, -0.48895790669655775, -0.5402750697071695, -0.5805304023860115, -0.6043538465147125, -0.6066864025326386, -0.6208520393905071, -0.6544255034174645, -0.6848355303488244, -0.7002980086569613, -0.7136948371721431, -0.7291886294437009, -0.7303798000008374, -0.7507597082757576, -0.771795575075797, -0.8115876452968898, -0.8275902660926517, -0.8147169856081893, -0.8884938066464801, -0.9135456898289344, -0.9513781996530172, -0.9906343919044592, -0.9914886797046644, -0.9969933818283497, -1.0114852469023197, -1.003135394585819, -0.9955114139444886, -1.011955492099085, -0.9874760553925954, -0.9706607754918697, -0.9405203708344384, -0.9459508879935764, -0.9365694695322835, -0.9246629154789953, -0.9184251444178168, -0.9273656831613242, -0.9599264434126092, -0.9529051017753002, -0.9642734551483331, -0.9575462693015832, -0.9682530248969603, -0.9464171627302496, -0.9353160107445545, -0.9360124224590536, -0.9544674048009015, -0.9174390049565544, -0.9196103417709547, -0.9152261125776662, -0.9136325446680683, -0.8971543950280642, -0.8889368620319448, -0.906542671539019, -0.9143217710898536, -0.9072917452834396, -0.8756310938221052, -0.9050425575668025, -0.9228487472745845, -0.9617925867536543, -0.970131687363949, -0.9895273739574414, -0.9762535026887365, -0.9521381394682783, -0.9667955592768543, -0.9668922623569342, -0.9688394909976003, -0.9917791216510046, -1.0339344098740326, -1.0508158330225685, -1.0510649729876453, -1.0288038586692232, -1.0672800563738278, -1.0733615106978274, -1.1015722170212134, -1.106874048039356, -1.1122818120693265, -1.1108721384454594, -1.1226615127171742, -1.1367625867159445, -1.177927174168976, -1.1437506276297655, -1.1901554037703552, -1.161667562004679, -1.1294375146764877, -1.1456246935711876, -1.1373970040083168, -1.145011943898271, -1.161466119235219, -1.1565934873599004, -1.1905155562635812, -1.1973624411944253, -1.227703988308512, -1.2261994379093786, -1.2051337325685885, -1.2028316099130352, -1.201874425837396, -1.226785669206589, -1.216576911302498, -1.2262275894016594, -1.2523288082981003, -1.2957624474846534, -1.306878110110145, -1.3075951015438871, -1.3306373004740093, -1.341147682639644, -1.3719264597041456, -1.3982042302562943, -1.3832334007580294, -1.3864747831480564, -1.411733339471384, -1.4349228049675136, -1.4771309442214329, -1.496177146648429, -1.4988455471167206, -1.514205726177318, -1.5346026716110766, -1.5406080585109285, -1.5724878662574162, -1.5536810701325154, -1.551899063357661, -1.5358782071385901, -1.5599730320136866, -1.544148397152857, -1.5837255881399437, -1.5678663554509011, -1.5311380361083569, -1.5367590936460949, -1.5660297585640297, -1.5943679863357787, -1.6255671256247146, -1.583467372739363, -1.6143959572681819, -1.650515623267939, -1.6603171845823947, -1.6862775136786687, -1.6998974228812669, -1.6971943003779828, -1.6928584369235342, -1.7031436975181493, -1.7454670924433147, -1.7632509162905086, -1.7510023563105397, -1.7239520281428988, -1.716624196204412, -1.7108578730303436, -1.7229374777286113, -1.7226770166368677, -1.717939755299755, -1.729333417650084, -1.7444515391582398, -1.7326927012213946]",True,0.8000,0.8000,0.4000,0.1000,0.2000,0.0100,2.0000,True
18,go,Hit,1,0.2500,"[0.0, -0.005109538226398631, -0.008405592168555973, 0.004835934881626728, -0.00043746692359170405, 0.012755505525454456, 0.004180301037370651, 0.04804216983491041, 0.04311548694066865, 0.08487060918200487, 0.09067736412435497, 0.07313619366085132, 0.08532646724974279, 0.0785932195461409, 0.09670381906893422, 0.13022010779079618]",False,0.8000,0.8000,0.4000,0.1000,0.2000,0.0100,2.0000,True
19,nogo,Correct Rejection,0,2.0000,"[0.0, -0.010644283718398774, -0.0003678067283802468, 0.035681868770202546, 0.05384578401881083, 0.01672407782025427, 0.005023227886494511, 0.010712591912913415, -0.018862009869163174, -0.004824548957182118, -0.013397774721436592, -0.0036608027547228184, -0.019517703496176708, -0.04648672909195575, -0.0947960444869459, -0.0836885588283666, -0.08385695251766566, -0.09595932329823745, -0.08788573959223235, -0.06969146558141047, -0.09143722814981227, -0.06062905455008228, -0.03328875129272921, -0.02303190825647307, -0.03298567947249426, -0.06661386305562778, -0.1170719199481598, -0.1139935824341316, -0.14859915013769454, -0.14330760177698126, -0.166174041301488, -0.16162304081631504, -0.16553058037320958, -0.1761096610719602, -0.16308017654351245, -0.15817473399078347, -0.1662124370397266, -0.17198494019572186, -0.17287468795369162, -0.17203237233683089, -0.1818068232178171, -0.21033316909340657, -0.22858297423722407, -0.2389845649459868, -0.2534182323983351, -0.24335566400107367, -0.24770574771291304, -0.23323510806457776, -0.2448276136350446, -0.2572254492669309, -0.268221497066967, -0.24212569401183565, -0.2116682078117263, -0.19942074214197017, -0.18251025077062982, -0.17459625780069232, -0.20601147890491134, -0.2139561792830866, -0.23602848407294652, -0.22339517826679522, -0.2372218597021704, -0.2906445766120763, -0.2728857290611339, -0.2714841948812794, -0.27925471730913937, -0.27669658993600205, -0.31284379858212685, -0.3471687296100806, -0.3269207525558772, -0.31238489249657225, -0.3100969482241316, -0.2781286232196234, -0.2929848224882019, -0.2854009893375532, -0.3106846967666782, -0.303922454810413, -0.29710034124690177, -0.30937775387413813, -0.30115151074542196, -0.3030551440049035, -0.24947238630276344, -0.2452930915816739, -0.23166455925865545, -0.24279855591371619, -0.2600715920744155, -0.26101602189918655, -0.28434309666750357, -0.2893605729001323, -0.3097344905412041, -0.30542764092916047, -0.32449266445585956, -0.3669952544392907, -0.3341834172681918, -0.3667609621056453, -0.377986068337703, -0.3961314478296158, -0.4055747098925764, -0.4542141101213096, -0.4817707817042027, -0.47802067386269803, -0.4743923379061825, -0.4499509793062121, -0.46291670204640506, -0.48338593554552284, -0.4842029605331998, -0.49083012002030074, -0.49235719781323334, -0.4921168251178246, -0.5249806141126173, -0.49579361926524473, -0.4502737854807563, -0.43839571136768013, -0.44157120069138234, -0.46358649551853337, -0.5033882306475236, -0.49270261471299054, -0.5432565785995812, -0.5717056805970533, -0.5677404695408352, -0.5962916637591781, -0.6075750786903134, -0.5727460095186694, -0.5922730288099386, -0.5940830333834182, -0.5978411304922692, -0.5988928047640844, -0.6004632139764138, -0.5819173213543111, -0.566885388406904, -0.571890486145313, -0.6057761928228129, -0.6253962088161954, -0.620257249486735, -0.6379142853386272, -0.6446960383656275, -0.6454776160134551, -0.6442394733448084, -0.6785047155147049, -0.7495854332360238, -0.7298373257698727, -0.7043139676386598, -0.7183375368670625, -0.7345449909083503, -0.7507224028990546, -0.7706451138609809, -0.744736546641387, -0.7520945954904904, -0.7463207653563667, -0.7570607400754762, -0.7644327116221475, -0.7599405383802821, -0.7871728395690614, -0.7824388307346234, -0.7767440235272018, -0.7930443892689528, -0.789736524331776, -0.801908014003107, -0.8403323250760635, -0.8012392894699574, -0.80229273991232, -0.8202708033169003, -0.860949518481062, -0.8709368172504164, -0.8626776827201339, -0.8536123715513635, -0.8485965879280931, -0.8624149060729723, -0.8801090543531311, -0.8557750357116507, -0.8797658640779845, -0.903077088214663, -0.8993813297772013, -0.898844276828201, -0.8893469550745624, -0.881789556818648, -0.9107114499083434, -0.9094192828037851, -0.9508695516685876, -0.9714044804331418, -0.9290444704573405, -0.9537876886846788, -0.9782854692226319, -0.9431476460888569, -0.9567012456335404, -1.0064825537495723, -1.0109006214296499, -1.0115188594153004, -1.050749076174034, -1.0535741042957594, -1.0769704406956015, -1.0698385579983694]",True,0.8000,0.8000,0.4000,0.1000,0.2000,0.0100,2.0000,True
20,go,Hit,1,0.2500,"[0.0, -0.0026325652725073066, -0.022888664215926238, -0.04283250451695265, -0.03637612271745308, 0.007716854884361302, -0.020674346886371757, -0.0008403544348954822, -0.004764931194417357, 0.041614073789762396, 0.04161874925669955, 0.06369782722615679, 0.09710487419391231, 0.09321096564498259, 0.08944177720332121, 0.10754441115425256]",False,0.8000,0.8000,0.4000,0.1000,0.2000,0.0100,2.0000,True
21,nogo,Correct Rejection,0,2.0000,"[0.0, -0.03221112647971146, -0.02410984105255033, -0.03608424598788636, -0.0796453790628735, -0.08129201504506722, -0.13125035037503985, -0.1382002325433625, -0.12411834971561958, -0.12969490889014113, -0.15946576394547754, -0.16794762891055864, -0.16201371845232682, -0.15615859360279652, -0.17617853330552474, -0.15862168070461624, -0.13185808217916478, -0.13227770040630993, -0.14711248273870253, -0.15028934919435544, -0.1708570077419795, -0.16697438256640706, -0.14639892247710887, -0.16365124751158483, -0.18497738956744145, -0.18096083162065685, -0.20290063145914783, -0.1922985845602252, -0.16954875440750652, -0.15785259651229583, -0.1455971634681029, -0.2031991948510314, -0.2242482930663336, -0.22234029087458587, -0.25109434258811647, -0.23640615717293326, -0.23005673156816026, -0.2414787202746738, -0.2695564466981111, -0.25575820526860427, -0.2733125654767786, -0.3044274008652314, -0.30612988344974895, -0.33539743577882236, -0.33931912563314953, -0.3391044247309802, -0.3328762015649209, -0.31268380198148676, -0.34560958978040746, -0.37080664418126497, -0.3878328437357194, -0.37971071212471813, -0.3654075300160611, -0.3900108043037639, -0.3876789779789499, -0.3951620290385622, -0.3979398770423065, -0.40005324382164553, -0.3943736326734921, -0.4396113627104138, -0.4477317388741441, -0.4513834531107001, -0.44643114048541016, -0.4637434412439106, -0.48845851173445276, -0.4902099312942672, -0.5111649449139337, -0.523532572782778, -0.550621304520772, -0.5460654516937029, -0.5607658527385455, -0.5706962803264106, -0.5744524040384899, -0.575713158463882, -0.5894161383844528, -0.6157084114989713, -0.6114318635023942, -0.6113905452347016, -0.6508348615981304, -0.6681623948052051, -0.6474151766091284, -0.6487611872015361, -0.6909147783867229, -0.7048110646477181, -0.730182743032804, -0.6975183981100813, -0.7411160238576756, -0.7498824757738861, -0.7442507070787148, -0.7415592037030427, -0.7436293035908648, -0.7430658672464244, -0.7677906562287197, -0.7626669020629627, -0.7970787728419408, -0.8183336420028628, -0.8223408176052807, -0.7833376433432154, -0.7841911507444127, -0.8176976418558406, -0.7987366785193958, -0.8177055379934246, -0.8161828248919318, -0.8225879014996486, -0.8471952272191637, -0.8626835133358217, -0.8615401088111411, -0.8578356457227921, -0.8135341174794101, -0.7819353590144515, -0.804404965706648, -0.8269006820823752, -0.8191831993853437, -0.8283982368139707, -0.8060103514752689, -0.8046986727873561, -0.8144695821487269, -0.7944119664829171, -0.781278162731584, -0.8091116578461518, -0.8026757550838475, -0.8225415848459801, -0.8305089170289808, -0.8190616767937245, -0.8609695091757392, -0.8386754436004417, -0.8478477084346798, -0.8988421177673712, -0.9095810209703723, -0.9462667377244371, -0.9743436997514333, -0.9911351121784149, -1.0107318753600063, -1.0528240614824937, -1.0541419309116298, -1.070203719217342, -1.1071844864522151, -1.1075959393573303, -1.1059594413221496, -1.13823464622424, -1.114926166465518, -1.1203909018541047, -1.1237901460513668, -1.1520662498814231, -1.17452130219106, -1.163548852531496, -1.1848523091219443, -1.1833968461577629, -1.1756927278611924, -1.1720861388786263, -1.1815316166820429, -1.2342442407148195, -1.2624125926366612, -1.2844423211737068, -1.2910361888648991, -1.277468013556421, -1.2811439943285603, -1.2887170751626753, -1.292376323648173, -1.294415103300144, -1.3091194593516253, -1.3256277558964027, -1.3439603882793605, -1.3448574214418003, -1.3631048782878892, -1.3864501630367398, -1.3837183993561095, -1.4015961268514214, -1.3975410047671897, -1.4013294589033283, -1.3754698741307094, -1.369453145804483, -1.3272843893881092, -1.3475531539573604, -1.3696285915625124, -1.3677928734830478, -1.3962153202341572, -1.4273380876012913, -1.411984403457734, -1.410731243001871, -1.3753686072788545, -1.3858298312464374, -1.3788651716158433, -1.364553487274839, -1.3834641067855489, -1.372545595059893, -1.3500660122024497, -1.336278866875288, -1.3143752865516174, -1.3075413524850679, -1.3387340197159099]",True,0.8000,0.8000,0.4000,0.1000,0.2000,0.0100,2.0000,True
22,nogo,Correct Rejection,0,2.0000,"[0.0, -0.03228010046906303, -0.028391546453647283, -0.026043178484818255, -0.02537223764490193, 0.005026328167263554, 0.003978829231484323, 0.009849704594284586, -0.01889326855036976, 0.0017406995425599606, 0.004113758714813164, 0.012982392029011011, -0.015444577599899388, -0.03340075455439141, -0.016999987804098435, -0.030849993538499737, -0.056947659769580966, -0.07346448501523337, -0.07947966841869365, -0.0870134593913734, -0.08757734766544886, -0.12627039176366844, -0.13832030422612454, -0.15197269699993377, -0.13635424988220793, -0.1720654692241414, -0.19551092993448094, -0.18412740302067424, -0.19351449292413908, -0.19964195411413108, -0.20342965368937302, -0.2156163655838453, -0.24546015616769118, -0.24331974765894981, -0.25733650743752456, -0.2563678688408115, -0.26238017336263975, -0.25003977278877443, -0.2942330914365449, -0.26483370582088084, -0.2966303739624254, -0.2824598323024566, -0.2982226114322394, -0.3070068913738636, -0.3052695517892123, -0.3294774919460788, -0.36926105396385606, -0.3781357090841352, -0.38075583114786077, -0.3783520025244512, -0.38767429409188087, -0.3836442436540708, -0.3884720418015207, -0.42031596602934784, -0.4083373254759468, -0.40672267372285514, -0.39914812149511825, -0.37295519068299654, -0.364563455757237, -0.3868268419594931, -0.36933645727772507, -0.3606960853246848, -0.3682148312838826, -0.36090524035316823, -0.3878665546233889, -0.37611958428436015, -0.3614392084733358, -0.3727340710316198, -0.3832206066382387, -0.3952359428699252, -0.37564914171424807, -0.3916978619049309, -0.3585193363499744, -0.3765422656984464, -0.373869618592553, -0.37807759403881125, -0.39310434309530007, -0.3894504813037005, -0.372271127460356, -0.4028018465166447, -0.3966091113725101, -0.4244318565715567, -0.4764725337869945, -0.48616600090131934, -0.5295029431742783, -0.5496747720825679, -0.5727536241451631, -0.5840768690479059, -0.6057080960197035, -0.6361169752308047, -0.670981896173123, -0.6586527644470762, -0.6913486194074233, -0.6937005680411357, -0.6483933258230042, -0.6494719679591644, -0.6616564578150579, -0.6778237910621618, -0.6868928047956565, -0.7161091043027217, -0.728991166444869, -0.7248652893271601, -0.7435989022578074, -0.7496098201041039, -0.7639941681472744, -0.7723024268428278, -0.7526870128253812, -0.8312825595920071, -0.8542494776993691, -0.8785759709464249, -0.8458402524841041, -0.8601514845384128, -0.8501027810357279, -0.8571363524363889, -0.8403649594188409, -0.8868284340538539, -0.8755528446364447, -0.8947907411386875, -0.9006018521382871, -0.9152221083335071, -0.943348506589238, -0.9598116729913282, -0.946837279627906, -0.9585564468945245, -0.9221601080906302, -0.933981218881239, -0.9233914643285405, -0.9222904778918923, -0.9101505148882959, -0.8973215824835119, -0.903354415740528, -0.9056974650619168, -0.945262169521123, -0.9511776919249837, -0.9652564187618459, -0.9559909694551217, -0.9630396042097362, -0.9759185503238911, -1.0253787027556533, -1.0075092546709783, -1.025290042314692, -1.0022500738454903, -1.013808019795318, -0.9951822742791654, -0.9916514747763427, -1.0119233945351573, -1.000113615316186, -1.0180372132686037, -1.0131626784768093, -1.029890741667484, -1.0292070572147067, -1.0379727880319176, -1.0570967624363552, -1.088958347270069, -1.0769364649271715, -1.0666709803472365, -1.0721263729645756, -1.071278494007833, -1.0839610499610182, -1.1106062807962385, -1.1083878388609563, -1.1402298744217032, -1.1530230750814032, -1.1472260802462537, -1.1534394406183708, -1.1578138684755923, -1.2026467717393992, -1.1833464214579863, -1.2045006434591452, -1.2131226387766108, -1.2185789008712908, -1.2324478184470764, -1.265110925148437, -1.2888075279743672, -1.3091631753135053, -1.3003750452543874, -1.2741580911967476, -1.2809521664808974, -1.295426433521353, -1.3191349677152577, -1.3214134277965182, -1.3584038596175987, -1.3870324396142668, -1.407750209410342, -1.4250664358742346, -1.4529075689671522, -1.464799229691389, -1.4809482033638846, -1.4669744271975325, -1.462109024290472, -1.473331233721689]",True,0.8000,0.8000,0.4000,0.1000,0.2000,0.0100,2.0000,True
23,go,Hit,1,0.1900,"[0.0, 0.021120383802882392, 0.023772805995269507, 0.02557488372129574, 0.07042753393587042, 0.09034826050731198, 0.052693804753454664, 0.07091864439715737, 0.08564523785904234, 0.12334905331135881]",False,0.8000,0.8000,0.4000,0.1000,0.2000,0.0100,2.0000,True
24,go,Hit,1,0.2400,"[0.0, 0.014355334141833858, 0.022494490982521376, 0.04714416133661572, 0.05728284193388213, 0.0553211399256897, 0.06931730946016672, 0.09250062198598603, 0.07238015767667112, 0.0816372751782848, 0.07720795304447216, 0.06974516210011555, 0.07708374462527214, 0.08970691623713441, 0.11806755042484277]",False,0.8000,0.8000,0.4000,0.1000,0.2000,0.0100,2.0000,True
25,go,Hit,1,0.2100,"[0.0, -0.0032548558517531533, 0.03897606903148261, 0.02258008924537487, 0.03547041161013913, 0.039421240321492745, 0.024040266464849542, 0.0285040547664502, 0.037286462154797195, 0.058962988776451966, 0.07612145534025108, 0.10394410428057682]",False,0.8000,0.8000,0.4000,0.1000,0.2000,0.0100,2.0000,True
26,nogo,Correct Rejection,0,2.0000,"[0.0, -0.05069137098294919, -0.0866319241660128, -0.07177865035166822, -0.09313009001272954, -0.10988009933318763, -0.10891094834737139, -0.13649666259104629, -0.12043488779488622, -0.13558458224423267, -0.1486052694969992, -0.1296011884193109, -0.11804051633873726, -0.11965589076165029, -0.07766890292798907, -0.08583087486452302, -0.11924249788157898, -0.08634625525278516, -0.10521785243477585, -0.09087182246603846, -0.11835112544597041, -0.11666963774337957, -0.09972796800375892, -0.06969457895299516, -0.07563091371647633, -0.1008574357797929, -0.13070200923539996, -0.1454574938494556, -0.14597898483041832, -0.17570571373911817, -0.18326146419671377, -0.1676144961959542, -0.18460112572090764, -0.1599908706173942, -0.1381019556192885, -0.1892316869511768, -0.24744857989024177, -0.26452288764453125, -0.23937915101444418, -0.23515198670847282, -0.2594889791473332, -0.277380912203115, -0.30978563044458257, -0.3233142975150794, -0.30868091497745365, -0.2787419809090004, -0.264093235328883, -0.25737125639720126, -0.2578633517263142, -0.27261694304199985, -0.3043096802654356, -0.2865033707385918, -0.28446421007774064, -0.27446434919175816, -0.2565893152859806, -0.2579474561354164, -0.24503093953170135, -0.253432435668161, -0.27630695268398553, -0.2622235745590176, -0.2789678904875874, -0.295553484798791, -0.3028508964315258, -0.3322256946826115, -0.35845487930056585, -0.383040727285532, -0.3666043904886181, -0.3491828928822919, -0.3405557213529826, -0.3784143804630665, -0.38121277112871016, -0.36740789260089457, -0.32389648223099554, -0.32667774121116205, -0.322578907694009, -0.36902566954617705, -0.3798285969711689, -0.38442833553140326, -0.4007482120821626, -0.41642935370677536, -0.4236474269812789, -0.4124967669733101, -0.43026616392622613, -0.4347426446274471, -0.43679035388806836, -0.44031366231094643, -0.43697411541205655, -0.4320682815667048, -0.4598882165506258, -0.4498084371770936, -0.43312897405017825, -0.46267665881197106, -0.482869877241939, -0.5181304207031134, -0.5548282118058042, -0.5784999303064645, -0.5689682923138926, -0.5812705494892667, -0.625861245961727, -0.6138145781760493, -0.6106662097092261, -0.6020269520635098, -0.6138568012982331, -0.6360405441068241, -0.6596037134925934, -0.6631352817988937, -0.6681889405226875, -0.6658030481554156, -0.6597776318042691, -0.6870239635811763, -0.6974989482074436, -0.7520853145373709, -0.7986623080498836, -0.7889997666485016, -0.791166943174485, -0.7569563179959021, -0.7374285186818997, -0.7458506898241776, -0.7872488154957741, -0.813917426537299, -0.8426792425583937, -0.8481361744531067, -0.8300890113879158, -0.8643838388666522, -0.8848612989903664, -0.8966050129529682, -0.9209691528765119, -0.9733627633438116, -0.9926427171365476, -1.0268841513832674, -1.0460559934866522, -1.0683150436057283, -1.0781679867595944, -1.0533364329958725, -1.0403075831428796, -1.0471845945266927, -1.0834599159033522, -1.1195434257163903, -1.105990810991591, -1.1265943438166057, -1.1281624210494916, -1.1484053186882874, -1.173285282786189, -1.1731141382279184, -1.1862748697197856, -1.1784423792447887, -1.1855662001858076, -1.1925477812727594, -1.2018300649259637, -1.2210057758101307, -1.225565453812759, -1.2123041645088117, -1.222674862862746, -1.2152314082984852, -1.219238505807499, -1.2420609282774369, -1.2460424352036834, -1.2571933266522337, -1.25780835646114, -1.27083589181053, -1.3120731386366213, -1.314926308345082, -1.3359747373749955, -1.341571357450763, -1.3227647619026204, -1.308971556026753, -1.3033737080819554, -1.3246694760906244, -1.2833932666013668, -1.3120282108505554, -1.3391251625274005, -1.3490419578025081, -1.3590602674261405, -1.3764513238508438, -1.360746585946927, -1.3731951116019243, -1.4156986027004304, -1.456441375179986, -1.4152624973135755, -1.4222428917307104, -1.4049280070149344, -1.389118233230634, -1.4198195609895718, -1.4233067323534236, -1.4314980009653346, -1.4512839117332945, -1.422215239728266, -1.3932828456646509, -1.4112087211503237, -1.3914720219423191, -1.4494108149072011]",True,0.8000,0.8000,0.4000,0.1000,0.2000,0.0100,2.0000,True
27,go,Hit,1,0.1700,"[0.0, 0.024469414752716984, 0.04930695620498982, 0.028328916506628738, 0.05649950068681195, 0.07507099733190097, 0.07338426681818003, 0.10146421033724065]",False,0.8000,0.8000,0.4000,0.1000,0.2000,0.0100,2.0000,True
28,nogo,Correct Rejection,0,2.0000,"[0.0, -0.021257021351324693, 0.020445214264689045, 0.019742496516406045, 0.022517716246548358, 0.025045069931678106, 0.009386268947504696, -0.015946135159008903, -0.061474671052996616, -0.09415302892410765, -0.0793645132954115, -0.11706408920994857, -0.11244168850814369, -0.12524459941790947, -0.13525420784957165, -0.09709327157567482, -0.08135503157949633, -0.0934186269605884, -0.09362919760149836, -0.07960099828368941, -0.08792721403165207, -0.10245161432260719, -0.140663525510159, -0.14431523067238483, -0.15029238076431922, -0.15862409056743718, -0.15717658244299196, -0.1698874041813645, -0.19498249329509573, -0.20687489540695658, -0.23161078935347068, -0.20422402810176835, -0.20967303212437752, -0.25397636005494395, -0.26333047500882195, -0.28871994949098645, -0.3180211733261756, -0.31411909710389535, -0.32151313454343405, -0.3146661251215202, -0.3377741938730089, -0.33662170267510383, -0.31148422481172167, -0.32222074072849377, -0.35784627507684996, -0.3793513837463146, -0.3729438875129298, -0.3596110733129603, -0.349762603613938, -0.3499112261452007, -0.3430874714344108, -0.37067057879597826, -0.33706691464209054, -0.3333878537145659, -0.3728006117105742, -0.3863846734289132, -0.3785524614328349, -0.33750962269353085, -0.3457025388886394, -0.35146077964594363, -0.35689795069631963, -0.37933719611460787, -0.4043423861995086, -0.3986328293491807, -0.4012375121275928, -0.3891993981378549, -0.394954948080873, -0.3995320192932347, -0.38115828893731724, -0.3971108972052978, -0.4313094024760664, -0.45429851492898105, -0.4681200428585935, -0.47702659952060633, -0.4990965882679312, -0.502348615734047, -0.5256778423028068, -0.5335758734552429, -0.56393581950036, -0.589811960818612, -0.6002276232325597, -0.6106068104535545, -0.6188011997469121, -0.5884635148119524, -0.5909876798258668, -0.5932333793666443, -0.6123084064152557, -0.6194133154665327, -0.6498986030300427, -0.6744595877662309, -0.6787375160090027, -0.6899243299921648, -0.6899065859649264, -0.6984228580594253, -0.6896703797001266, -0.683407134639006, -0.7303241777048964, -0.7613533813577245, -0.787370175630889, -0.7746623396575928, -0.7873691044016986, -0.7861328736087989, -0.7965413908938385, -0.8036461279769831, -0.8335018025420987, -0.8552263245235125, -0.8772696955367051, -0.8646550891599453, -0.8575604878017086, -0.8680018535919317, -0.8944317531480414, -0.8950944309060688, -0.877721628351304, -0.8883461552178965, -0.9063983456249223, -0.9365347762429412, -0.9361072072653669, -0.9115599061519432, -0.9008109215317215, -0.9296749539194982, -0.9397519900731441, -0.9623570702718651, -0.9838144780293664, -1.0282438608399678, -1.025899946326309, -1.0720266111873435, -1.0783153435897177, -1.127187167773167, -1.1290498979206727, -1.143202995260939, -1.1169072033500975, -1.1047491683126462, -1.1202770511894915, -1.1380990510766424, -1.1512740249876292, -1.1450764305940426, -1.1396749832469675, -1.1251842623023312, -1.1048928068480515, -1.1129286910544398, -1.1259548468295608, -1.1418258175996234, -1.1453374240226226, -1.1714239865942948, -1.1757228732456795, -1.18541470027108, -1.2153979655670315, -1.2343565788382944, -1.2432431208381027, -1.2442534428408147, -1.2563315393074332, -1.279448725392607, -1.2945382091250448, -1.3795226031956656, -1.4211469584866876, -1.4585650791766638, -1.4544735872327124, -1.454499747348673, -1.4840157180797373, -1.4829132821421094, -1.4858314138488138, -1.5157385233937564, -1.5119750478589122, -1.5176817382854635, -1.5407048205938056, -1.5176546306793233, -1.519099812712191, -1.5469419319263487, -1.5824626105332529, -1.5670162133800658, -1.5961905520073714, -1.6053951000243885, -1.6040122898025935, -1.6088211737727902, -1.6358962144990767, -1.6618110025740542, -1.6366647481347028, -1.6271833283626687, -1.6133868833053626, -1.593181787447239, -1.5573139166125023, -1.5389939959684789, -1.5479387442434036, -1.567900344641777, -1.5842183231545002, -1.5756555508431402, -1.5753482498064104, -1.582440076366864, -1.568549789804462, -1.5357764241507017, -1.5158076936980762]",True,0.8000,0.8000,0.4000,0.1000,0.2000,0.0100,2.0000,True
29,go,Hit,1,0.2500,"[0.0, 0.0033038893968091723, 0.006343058791253622, -0.005641110704928577, -0.010722264232863607, -0.014287332430701056, -0.024925890255285757, 0.01319467053786362, 0.020404893624444892, 0.04014324476828887, 0.036393958330994555, 0.054623539482584936, 0.06510321343456019, 0.078548971292018, 0.0938305777224067, 0.11593356365391388]",False,0.8000,0.8000,0.4000,0.1000,0.2000,0.0100,2.0000,True
30,go,Hit,1,0.2300,"[0.0, 0.017455419809806052, -0.003791125226866355, 0.033554999260952345, 0.03842618318390394, 0.02513573998152336, 0.059376147056274524, 0.057081618127136906, 0.03881571237973028, 0.054397265294774885, 0.043014250641266724, 0.07499450830708607, 0.09631491483567929, 0.11704966430457688]",False,0.8000,0.8000,0.4000,0.1000,0.2000,0.0100,2.0000,True
31,go,Hit,1,0.2100,"[0.0, -0.0003304133113613706, -0.024080391034044683, -0.001820160321183692, 0.0319514830102019, 0.039800697714842403, 0.01470732795773358, 0.029318314997061605, 0.06338963593985503, 0.06972679552121555, 0.08836059073011082, 0.11840589744770763]",False,0.8000,0.8000,0.4000,0.1000,0.2000,0.0100,2.0000,True
32,go,Hit,1,0.2200,"[0.0, -0.0009233754859881791, -0.017921553984005918, -0.0066382855811823165, -0.005768516619517268, -0.02439376211026818, 0.015367586388510598, -0.003025558088793078, 0.006441280934407255, 0.0365866747290666, 0.03023575509541406, 0.0821666823541658, 0.11877511906939256]",False,0.8000,0.8000,0.4000,0.1000,0.2000,0.0100,2.0000,True
33,go,Hit,1,0.3900,"[0.0, -0.024875242756784675, -0.060416855547327925, -0.03553959585334112, -0.03812085411099241, -0.05144170960768006, -0.011415588482422342, -0.011464467080627615, 0.007445503291024884, 0.009249760562445867, -0.01857097968230213, -0.027703114256814095, -0.01573631436063202, -0.005325218239147854, -0.016525160386027818, -0.01667487360958461, 0.025624318167428918, 0.012893152647561808, -0.013187488994139795, -0.019935871374101976, -0.009159603132871121, 0.01486570836202719, 0.027793173551952686, 0.006448700966912954, -0.003849583768266062, 0.015015378455975767, 0.02448009348677957, 0.08305300332068882, 0.08152734999599068, 0.10130285926318491]",False,0.8000,0.8000,0.4000,0.1000,0.2000,0.0100,2.0000,True
34,nogo,Correct Rejection,0,2.0000,"[0.0, -0.02681975880394348, -0.026910244454184794, -0.009890681860702417, 0.01856854318725347, 0.03656561989238757, 0.03246591219019102, 0.054832055647123394, 0.05955936988179625, 0.06077417798788886, 0.06594547122988022, 0.06990428205681216, 0.04930209851357687, 0.010113560560747463, -0.00569228951742665, -0.018147026239096475, -0.03240580282298735, -0.019819921344800512, -0.008245571698677233, -0.015615299351164248, 0.004280066819512417, 0.0009159027992187542, -0.02134206755632874, -0.017668430341236184, 0.017399187920892928, -0.013439739639059076, -0.003827873386738104, -0.0026851315966057443, -0.0031739401242496723, -0.010322547223652705, -0.025384019465492808, -0.06799749038439609, -0.08354850475271185, -0.1093017264834324, -0.13321610079687887, -0.14267345837758047, -0.1866580473911118, -0.2098926234322692, -0.2278976229118842, -0.22021319637693057, -0.2254945656146595, -0.2162963884238613, -0.21493737693783277, -0.20328602924324835, -0.1978522962187231, -0.18569296637204724, -0.18368968421791662, -0.19948269799308666, -0.19624841727918071, -0.2030080373000131, -0.2144606254235546, -0.19123915104438244, -0.15700659944645803, -0.16569649331599373, -0.19604503373906987, -0.20909482377246158, -0.20022914036538927, -0.21111725776377668, -0.24208893649070382, -0.20098446684772614, -0.24039027434008528, -0.24852011788745193, -0.2535090409045264, -0.2866429083578094, -0.29344608047270776, -0.3071436807871511, -0.3120461730792668, -0.32800623335131596, -0.3731070620493539, -0.3652663391879943, -0.3708059933919693, -0.3709937519396153, -0.3645128765468069, -0.4037373935680682, -0.39637346027918585, -0.4176875089605406, -0.4205505131486881, -0.4307278228750072, -0.4352375094436498, -0.4362091808900809, -0.46199049603901143, -0.45409660901887183, -0.4431322926173623, -0.42647171730720723, -0.447396442805345, -0.4402023853656658, -0.4698103990007857, -0.4961994845697946, -0.4837067631361743, -0.47332447345444434, -0.4832040360048315, -0.4846397217080293, -0.45403744415699343, -0.45549251122663714, -0.4738629847097177, -0.4895000563273165, -0.5018358862149745, -0.5351807539346256, -0.583711852568421, -0.6087575554320276, -0.5769194610573025, -0.6345904874705638, -0.6298974304579567, -0.6133676480528645, -0.6553334481916788, -0.6645884498313165, -0.6602801041196875, -0.6742219240260634, -0.6440342011061929, -0.6358739570668986, -0.6568112520974498, -0.646499575261736, -0.6639665889551453, -0.6984697310736022, -0.6986221632081636, -0.6991224570668109, -0.7128062866229888, -0.7094915955692381, -0.7221349099333343, -0.7352340732951634, -0.7404345874091188, -0.7722990672405595, -0.7868927278837626, -0.7962881321498078, -0.7993468281333672, -0.8501774218722271, -0.8702614788715537, -0.9020897167037187, -0.9012560738224457, -0.8930274482572406, -0.9381907987336935, -0.9421684193382914, -0.9547876088710148, -0.9380085376446365, -0.9695660417944318, -0.9922650671242244, -0.9941288063279706, -0.9830040138380377, -1.0005150063266925, -1.0138765471168276, -1.0141650240034261, -1.0591354420649965, -1.0891511270972725, -1.0710115602330614, -1.0914745668643713, -1.0753889251426778, -1.0736088836817659, -1.0922923169865981, -1.0578349583667048, -1.0423342832400757, -1.0462223773492536, -1.0589571285824813, -1.1120062074078838, -1.1258914924367323, -1.129627984633879, -1.1357127955054964, -1.1560539741979525, -1.1555006762064395, -1.1719206990180446, -1.1919529733735064, -1.2087412429465583, -1.1978117301223479, -1.2016478134714517, -1.2178908838904225, -1.2013545890620352, -1.224590248009457, -1.2158184668437826, -1.2166283591108373, -1.2235501286233441, -1.2465116234446192, -1.262230081722464, -1.2888911029218817, -1.273848472915829, -1.2829392397965338, -1.3011123402239029, -1.2811637999709071, -1.2848892247093113, -1.2651114694392487, -1.2779667473206122, -1.2933798031153785, -1.2985686602287896, -1.2713308838022652, -1.2778033890260934, -1.2911845957029513, -1.304595014817703, -1.3075001491046452, -1.299909897918892, -1.3162262195549288, -1.3279409100828368, -1.3183712712883584, -1.319793548840297]",True,0.8000,0.8000,0.4000,0.1000,0.2000,0.0100,2.0000,True
35,nogo,Correct Rejection,0,2.0000,"[0.0, 0.00027759640118823255, 0.019210795199410435, 0.012845125474071031, 0.014604278845277546, 0.03822660290344948, 0.01827042530613862, 0.03397785948218464, 0.048835045699791725, 0.07359279851958864, 0.06656194751220088, 0.05348071870822136, 0.05182285066813238, 0.04751374271536561, 0.029715314727583854, 0.036791471704953074, 0.0433613814454578, 0.04492681935626669, 0.045730114370750974, 0.049542667397128023, 0.02196745564104735, 0.0315672527489881, 0.010029154737338342, 0.021092895131337004, 0.0064348283675795, -0.002418210390368672, 0.011232254045761532, -0.0011289018356405271, -0.005250079034930801, 0.012008887090733866, -0.010851181171157022, -0.007925039428638448, -0.009066782691579744, -0.006021055831659291, -0.02365252073131249, -0.03632915421600591, -0.03187041790754031, -0.062164161836148424, -0.10062548473279963, -0.11078220228728101, -0.13344203815427275, -0.1302723263967993, -0.09671657194114494, -0.07560709375162279, -0.10903543413392253, -0.11756364094588095, -0.1201959063550122, -0.12303665364029923, -0.16105463464430708, -0.19146551284296237, -0.2300146198069007, -0.21080430748408344, -0.2426247738438849, -0.2327249943185936, -0.2711965608107629, -0.2974358252438205, -0.3392559285270948, -0.3305903068181119, -0.3244454388130313, -0.3091776873317398, -0.33102648195357065, -0.3613096674522315, -0.36052706495534226, -0.4019923277437534, -0.3861528847079051, -0.4037600887553192, -0.3849290181094388, -0.4454038225261909, -0.4542103504996818, -0.465184405012609, -0.4702001118815886, -0.49775855094143673, -0.50588171056798, -0.5259405123239821, -0.5428342866393401, -0.5983387812001886, -0.5844681614318221, -0.5804443138522805, -0.6146010812088605, -0.6378530998100507, -0.6289492720970301, -0.6657900374847877, -0.7114941876791321, -0.7306514852159296, -0.7242010746369395, -0.7076738148668943, -0.7255855771356008, -0.7599320206375437, -0.766702064007352, -0.7788914467422435, -0.8011885868841422, -0.8048705900414148, -0.8307198477256972, -0.8321209637598024, -0.8043045101714587, -0.803701143553684, -0.7668292902070056, -0.776268670143228, -0.8013925354185202, -0.8305261570856344, -0.8178006856593201, -0.8302242045987088, -0.8512333147321919, -0.8201390821558855, -0.804792634903753, -0.7850026140289404, -0.8323005056773429, -0.8285338783592768, -0.8479018131072888, -0.8603768285156219, -0.8960563749374542, -0.9134398782404525, -0.9196359424187902, -0.93450488400738, -0.956547058459366, -0.940849577311482, -0.9619146966543508, -0.9824441728331174, -0.9500444591872932, -0.9698596272019443, -1.010131678746038, -1.004406735528976, -1.0372916208197076, -1.0363100724439775, -0.9984964089720929, -1.0092439620287545, -1.0291312148443357, -1.0576714017120405, -1.0909349134982051, -1.0790313688980722, -1.0690491718414532, -1.0766883315410365, -1.1072547318042383, -1.100046186265895, -1.0899725008922185, -1.0900176213443677, -1.091743398855923, -1.0995950218861954, -1.0981935205263313, -1.1181073468871794, -1.0805039673492878, -1.0914048460859185, -1.131155133890303, -1.1303273684357122, -1.1455398561635475, -1.1518983632246724, -1.139785654402492, -1.161306648988193, -1.1728081728225073, -1.179414654227339, -1.1849240563454255, -1.1783840105578847, -1.2252078887574074, -1.2118230065654305, -1.2070372022981275, -1.2028701979732555, -1.240395234046832, -1.2552083359596606, -1.259722736016961, -1.2689836862098869, -1.2809737488399993, -1.258338416494079, -1.2576729518788794, -1.2652176518776865, -1.280612490742707, -1.2907645643081134, -1.3172631072465546, -1.3113366058049019, -1.3508738014504678, -1.384288369760994, -1.3839679888168537, -1.4107905819066575, -1.4221116504407327, -1.4354393160262982, -1.4448690319381383, -1.4436093550794196, -1.4387893056863612, -1.4365151879845288, -1.431164232872868, -1.409679420420556, -1.412014486804227, -1.4210799369696607, -1.3956879941133937, -1.418932614082801, -1.4574662777865712, -1.496829463829875, -1.4953699697532608, -1.4993086424087658, -1.5118725248857878, -1.5458827715676573, -1.5671304769561571]",True,0.8000,0.8000,0.4000,0.1000,0.2000,0.0100,2.0000,True
36,go,Hit,1,0.2300,"[0.0, 0.03783556428592634, 0.010957913545930273, -0.011415345116601125, 0.03825846838752473, 0.007971352193082884, 0.029009164124523527, 0.050181870110597986, 0.08855417905857149, 0.06654449724160469, 0.06624469334853036, 0.06437128541903406, 0.0931039491082213, 0.11271690925370147]",False,0.8000,0.8000,0.4000,0.1000,0.2000,0.0100,2.0000,True
37,go,Hit,1,0.1400,"[0.0, 0.04761921621652989, 0.08192213131756954, 0.096707050901171, 0.1321068796868295]",False,0.8000,0.8000,0.4000,0.1000,0.2000,0.0100,2.0000,True
38,go,Hit,1,0.2200,"[0.0, 0.012643978336785742, -0.0033741850917601325, -0.026722208606078313, -0.016787261331849643, 0.01332606624149102, 0.05381400314310176, 0.06266645790362635, 0.08193074878071993, 0.055301104144017066, 0.07427529138657428, 0.0852783108122932, 0.10116488439683402]",False,0.8000,0.8000,0.4000,0.1000,0.2000,0.0100,2.0000,True
39,go,Hit,1,0.1800,"[0.0, 0.00828402475584088, -0.004196612171859199, 0.02835649370751261, 0.031543050664409183, 0.019115042414025896, 0.019155401713534845, 0.07756258317705159, 0.11097785421995852]",False,0.8000,0.8000,0.4000,0.1000,0.2000,0.0100,2.0000,True
40,go,Hit,1,0.1600,"[0.0, 0.059358443112558966, 0.024553152361081493, 0.06557359969204707, 0.09060720616549287, 0.09519714275235949, 0.10483978333073429]",False,0.8000,0.8000,0.4000,0.1000,0.2000,0.0100,2.0000,True
41,go,Hit,1,0.2600,"[0.0, -0.00658864981048349, 0.009370125628462183, 0.0015327831529832418, 0.0013605499931322942, -0.007640814808956214, -0.01878128865515879, -0.024164445775293558, -0.0031122297157839263, -0.004475056084481805, 0.030568343376678925, 0.043140500033976584, 0.056792732165479407, 0.0548283505974288, 0.07698738737068592, 0.08143050518469157, 0.10734525562006902]",False,0.8000,0.8000,0.4000,0.1000,0.2000,0.0100,2.0000,True
42,go,Hit,1,0.1800,"[0.0, -0.0005382283787428721, -0.0039124294886561835, -0.024551680938953605, -0.000957837768713915, 0.03174912510159166, 0.047220868880276476, 0.06640385733522292, 0.10302678611875402]",False,0.8000,0.8000,0.4000,0.1000,0.2000,0.0100,2.0000,True
43,go,Hit,1,0.2700,"[0.0, 0.004267518385062474, 0.0041735628775436484, 0.04840878911975754, 0.06619221606320108, 0.06438466501639308, 0.06431977801923051, 0.06904755788055984, 0.04733191474948536, 0.02636409881019819, 0.028123785113641817, 0.022509735053932865, 0.04978005178399661, 0.05612261703514265, 0.06459328806302675, 0.07223796538609492, 0.08588771277784572, 0.10787147425553129]",False,0.8000,0.8000,0.4000,0.1000,0.2000,0.0100,2.0000,True
44,nogo,Correct Rejection,0,2.0000,"[0.0, 0.01523132698903284, 0.017235105612765075, 0.03912783344869014, 0.026355982181311566, 0.03471678666723611, 0.023556866144155565, 0.01378559361485893, -0.00025859120469021515, -0.027133699686023586, -0.03965577319560194, -0.04397075070058716, -0.046298649759246455, -0.0555032992797509, -0.06033345331023457, -0.07624314982832438, -0.08853563235619474, -0.0780821658677565, -0.08738864951572167, -0.10617149323938438, -0.11146959611380439, -0.13312565657553663, -0.1358230164259202, -0.14231420635471084, -0.1824890651553968, -0.2054809858160867, -0.19293256252030727, -0.1931575182337613, -0.17938481209000548, -0.16836954608463173, -0.13086813583713452, -0.1581769203730426, -0.1854120307194354, -0.20115578714178967, -0.2043304958861034, -0.20940321927404978, -0.23928323804306728, -0.27380805362391164, -0.27897496969004226, -0.2492935866723646, -0.29643095503316363, -0.2774396170129945, -0.2848575114074264, -0.2856881580646125, -0.2724908012878984, -0.33291077572828, -0.35782571758562903, -0.359180236636718, -0.3974779459078305, -0.3801787483201099, -0.39372387041622353, -0.401613251044345, -0.42313478734652554, -0.4376972475492829, -0.44700996827998996, -0.4304221433465168, -0.4230947986094269, -0.4322542631319318, -0.4317471920802128, -0.4745825287279914, -0.45905506455816614, -0.4476606316626552, -0.44445766020856026, -0.4323640346498445, -0.3858746413418936, -0.3584782094767277, -0.3467420226465111, -0.3611865709593679, -0.3791844450437711, -0.40448692796959856, -0.4027352269656438, -0.4528810019214967, -0.48783075892521893, -0.5032151100229341, -0.5022264084162334, -0.4745018326905142, -0.4730159564553635, -0.5061738313060953, -0.511433751639565, -0.5386203675438432, -0.529777088719459, -0.5724758858256231, -0.5664602970958469, -0.6081819395202729, -0.6222238817021036, -0.6403325709784723, -0.6520137694185498, -0.6223454934037704, -0.6159150426237108, -0.6394721166209493, -0.6348837077099314, -0.6325850730184388, -0.648523273701321, -0.6553968380065566, -0.6333255524128185, -0.6057942054856645, -0.5930526165353586, -0.5915035147093014, -0.5820394351760418, -0.5879139176304813, -0.6003908834012612, -0.6292291039249517, -0.6308263805809972, -0.6577791530084329, -0.5829319715328903, -0.5803454620758532, -0.5889084681745046, -0.6058545132727157, -0.6188814563586087, -0.6351010070384012, -0.6637670372037313, -0.6704593592822603, -0.701121546263348, -0.6562758548143814, -0.6524511656478764, -0.640664238155379, -0.6594330020885899, -0.6777339765536261, -0.6974118685249787, -0.7415753906816043, -0.727184841867691, -0.7374638353703027, -0.7670767883947429, -0.7781848089858814, -0.7931457904828608, -0.8207173808966278, -0.8482017615331781, -0.8474787699447249, -0.8467281993070144, -0.856999153809459, -0.8715204060174804, -0.8538524104133013, -0.8389566479893849, -0.9008743720531566, -0.9154928718483454, -0.9092271230030212, -0.9181555313592479, -0.937335462505983, -0.9485779428192835, -0.9481886329372737, -0.9237474464437176, -0.9268698998256065, -0.927895419108128, -0.9409805420649272, -0.9747334029659037, -0.9613649310233497, -0.9647835476345527, -0.9735102911040301, -0.9740692489246416, -0.9526792795463592, -0.9865938422293316, -1.0223958774838635, -1.0423808148125837, -1.0476717770312132, -1.0915451725017227, -1.1255174179998486, -1.1368849017645724, -1.1566871752772903, -1.173721030603804, -1.161947439688382, -1.1369284202232373, -1.115893206810617, -1.1273581294959811, -1.1569331338265831, -1.1839240784711027, -1.1753224846843304, -1.2182224697387884, -1.2462953901819194, -1.2898735982143092, -1.2620945453409853, -1.2735900443088504, -1.2898663928032854, -1.3157063036182561, -1.3242691099967407, -1.3195862936183, -1.3180941664559818, -1.3174553772778417, -1.3292066564349352, -1.330733177945634, -1.3633321347511616, -1.3896125857749217, -1.3996314326765524, -1.4112580466777584, -1.4399858001795847, -1.473468513486002, -1.4793727439958997, -1.4615069409354777, -1.5024100322360485, -1.518896125271851, -1.533756749544208, -1.5382139936725898]",True,0.8000,0.8000,0.4000,0.1000,0.2000,0.0100,2.0000,True
45,go,Hit,1,0.2000,"[0.0, 0.0098697640912684, -0.010624098293211934, 0.004544834205898742, -0.008222077459954966, -0.009918561652530565, 0.009604347027947274, 0.006774756092483644, 0.04252013244729828, 0.08282039667513877, 0.12432137434439242]",False,0.8000,0.8000,0.4000,0.1000,0.2000,0.0100,2.0000,True
46,go,Hit,1,0.1700,"[0.0, 0.022142339066611467, 0.0510010258141037, 0.07641260795224201, 0.05917846500796895, 0.07601213665755494, 0.0818737156573069, 0.10942091448785544]",False,0.8000,0.8000,0.4000,0.1000,0.2000,0.0100,2.0000,True
47,go,Hit,1,0.3600,"[0.0, 0.0032649813021820052, -0.016199776052406904, -0.03231884370230265, -0.013044901816013945, 0.002484404947123438, -0.005765938761165226, 0.018829678299822114, 0.008647015395821855, -0.022286480047091765, -0.0363283982773569, -0.016423288154523392, -0.013583056855117515, -0.03975595664641915, -0.06311891811566486, -0.035796927445579795, -0.03189905850215178, -0.035706649262463086, -0.028744360768068786, -0.015430850876161875, 0.005359489531877107, 0.011628741722825789, 0.036544014102042166, 0.05330086659657177, 0.07506240921152643, 0.09641654964905283, 0.12767147079709634]",False,0.8000,0.8000,0.4000,0.1000,0.2000,0.0100,2.0000,True
48,go,Hit,1,0.2300,"[0.0, 0.024354931316827613, 0.004515782006315444, -0.010308035533682272, -0.005857227151186788, -0.025842490733805887, -0.018724372629407196, 0.005631569351111348, 0.013108972173666997, 0.017100903547246887, 0.02332111210333558, 0.0733670096482432, 0.07902276888658955, 0.10659613470336864]",False,0.8000,0.8000,0.4000,0.1000,0.2000,0.0100,2.0000,True
49,go,Hit,1,0.2000,"[0.0, 0.02370356436413076, 0.01946705017062427, -0.02117505200546374, 0.008110632196278392, 0.00976858382829436, 0.04563452799946799, 0.054316021632151726, 0.07455589117133675, 0.08666994820428879, 0.10459789823738203]",False,0.8000,0.8000,0.4000,0.1000,0.2000,0.0100,2.0000,True
50,go,Hit,1,0.2600,"[0.0, -0.00337278397463686, -0.016710205282308536, -0.04579367969168778, -0.016070901247362268, -0.02139502798717422, 0.015543876909746492, 0.02880890179466668, 0.05845465739686635, 0.06639919416393077, 0.088986260789447, 0.0654603593942599, 0.09045700896360825, 0.09778713589520598, 0.09359176833733325, 0.09299078337537034, 0.10040143318585741]",False,0.8000,0.8000,0.4000,0.1000,0.2000,0.0100,2.0000,True
51,nogo,Correct Rejection,0,2.0000,"[0.0, -0.004956811849573594, -0.011500364309667936, -0.007190142508496306, -0.00647306429568658, 0.0009990958872897956, -0.0384605611550568, -0.05919700970631571, -0.06201182239752969, -0.09494809585119164, -0.09131993353955484, -0.05058931984820827, -0.06105058075884102, -0.07635672989631663, -0.06667960991233515, -0.09947975508694254, -0.09812967280495782, -0.10299292189334457, -0.10296276736074204, -0.10520177255656576, -0.1434649163380968, -0.1505466026569092, -0.1544881121836079, -0.156168932955455, -0.1605258104639138, -0.21528956856492265, -0.22223730759681348, -0.232409921308729, -0.23313572417217374, -0.23816979812747066, -0.24290422438838333, -0.25095545130762453, -0.2757947173176541, -0.29661841995293664, -0.29076782479764957, -0.3008562862304212, -0.27539550453393974, -0.25688203136503623, -0.2994014599261823, -0.2993144478069635, -0.32833102649144663, -0.34044379390701723, -0.35771939015532855, -0.36009760894789267, -0.35088975220605045, -0.3790718646916664, -0.36954547749726807, -0.3985865671162787, -0.403316820805105, -0.4369913605340635, -0.43659282446231223, -0.4442516591572825, -0.43778472163094967, -0.4564482961465956, -0.46489995284241226, -0.47197844960569996, -0.47269797918820905, -0.4717887292182685, -0.45610030735589885, -0.468350287942095, -0.45077540694993357, -0.5336607996746306, -0.5312494697196298, -0.5281314559264775, -0.5475272581706453, -0.5315847515160265, -0.5663371212283457, -0.5760407632084867, -0.5926659995287713, -0.6121800715345251, -0.6239139646880885, -0.6503702811286203, -0.652329426684882, -0.6566533124014468, -0.6543473889455983, -0.6600648367605589, -0.6612476448312467, -0.7017648186909049, -0.6914874924312323, -0.6869008551656021, -0.7213625199848498, -0.7896734055883518, -0.7986711311042322, -0.8048671415239377, -0.7880811416012327, -0.8127337356445229, -0.8114049892081796, -0.8060697682588095, -0.820596743015198, -0.8284614706153617, -0.8459210403759937, -0.8246222138531091, -0.8605248272008587, -0.8549579011344298, -0.8473096766946021, -0.8663804769655009, -0.8723558516067309, -0.8970663991110271, -0.8797328908023399, -0.8722184147163796, -0.8855227144841803, -0.916267624238181, -0.9193135446180253, -0.8950925492240994, -0.8948489951882153, -0.8969236062805394, -0.8835398896885015, -0.9053666368346134, -0.9098601927997354, -0.9583497844554639, -0.9664243999675118, -0.9941141253815344, -1.009666558932686, -1.0112638956344329, -1.0203998643235919, -1.0068147356061037, -0.9991216091833436, -0.9852150222387922, -0.9953750207104853, -1.0086915068744085, -1.0121158956695357, -1.0078486901127532, -1.0374736957841524, -1.0234772066912774, -1.0554095100000351, -1.0666420970149222, -1.0792234937364602, -1.0889512182237864, -1.0911064071732948, -1.105412961459142, -1.1168736838432336, -1.1183980802540425, -1.1407815764821758, -1.166189616816662, -1.163504064394254, -1.149098507454415, -1.1730263330243458, -1.1585854160998406, -1.1896324295032774, -1.1635163484092046, -1.1607039645760202, -1.1757609064315233, -1.1991830236868966, -1.2109736044849864, -1.2150462572147518, -1.242841484240571, -1.3202451554503014, -1.279946102521109, -1.2705081208379605, -1.271801903375602, -1.290454651734327, -1.3061045055800502, -1.3404747931039807, -1.3419125215651917, -1.3706246418570127, -1.3500768800179217, -1.3450285331739558, -1.3358072386776874, -1.3409686329349102, -1.3519165300120846, -1.3402901795284625, -1.3669418215460012, -1.38977476388123, -1.3854552915688647, -1.3985998178992773, -1.3949805690893242, -1.3821995628257275, -1.3727748959714905, -1.3921308076271863, -1.3987006484936941, -1.3848693293700707, -1.376843835295988, -1.38239197845549, -1.4117442572490988, -1.3817754122835797, -1.3589379486356095, -1.3701565848883928, -1.4300588059259076, -1.4363872347131383, -1.4718121860826834, -1.494935483162693, -1.4973825019864964, -1.4994364118778147, -1.5049415829290789, -1.5178286245938346, -1.5225514230135289, -1.5888336940087116, -1.5812336133004434, -1.596390285098735, -1.5723954268088987, -1.5854482185348517]",True,0.8000,0.8000,0.4000,0.1000,0.2000,0.0100,2.0000,True
52,nogo,Correct Rejection,0,2.0000,"[0.0, -0.014093850512301592, -0.02418641919883071, -0.01628893027730416, -0.0436852669655558, -0.04278887680587741, -0.030186023717471373, 0.004405381204345818, 0.0017928935694484045, -0.02905283394407775, -0.046177794939758265, -0.011695022254145149, -0.032504479371984536, -0.03173122504197963, -0.03964893052174761, -0.024352036440085878, -0.052380939569958054, -0.10292270025955039, -0.10097457903624363, -0.08408171119309336, -0.06568635947971575, -0.0626414214016704, -0.0712283803969467, -0.06324217870621417, -0.07085140555856152, -0.08618028667554448, -0.10525537759506853, -0.0839425434103431, -0.1005492109287678, -0.10617421107147668, -0.12595466513402281, -0.12669307064062363, -0.1334802170260135, -0.14364514712151796, -0.19123289147721245, -0.19355765045471165, -0.19140309422075444, -0.19481974796427817, -0.20384894000813178, -0.22625810146360995, -0.21482810780617168, -0.20044116481138788, -0.22165942538417346, -0.2067663660236848, -0.2243089742482134, -0.22790396653710213, -0.22014371093170984, -0.20162187379170063, -0.18901433633484702, -0.21762846098149818, -0.23555406520172406, -0.2604900089700045, -0.31149769582963227, -0.3197189400726629, -0.2965838408304086, -0.3265617362993558, -0.3759086660612948, -0.4126406681299554, -0.4591582188534572, -0.4618182834555244, -0.4756596720699399, -0.4641801254644176, -0.4458200434723487, -0.45443236342695464, -0.46292763840477147, -0.4171326027799012, -0.43110465150129745, -0.4541440122108604, -0.45969156882366446, -0.46177315201876173, -0.44841119237334426, -0.4850643259383406, -0.4767279546735533, -0.4408971725395639, -0.4477096888317442, -0.4871939932932705, -0.48435841619742764, -0.49952531689632423, -0.5421662634373544, -0.5647544962062728, -0.5847613079585772, -0.5868265145444812, -0.5837235101525279, -0.5503160087179099, -0.5572180524606627, -0.581587811996308, -0.5931681235884287, -0.6157636672262962, -0.6685545253160317, -0.6997681539076268, -0.6946587724323781, -0.6931177887244978, -0.6885933887298716, -0.7210678077563026, -0.7185686182958256, -0.7320566416166212, -0.7345257934071177, -0.7397041571720587, -0.7220938542657908, -0.7129945965583373, -0.7281215692967258, -0.7060038050136079, -0.711084833841233, -0.6875082497773811, -0.7111365075018676, -0.6839458283573719, -0.6646144468285461, -0.6677890437752472, -0.6708128323541926, -0.6499978487008289, -0.655496880750197, -0.6967163835772237, -0.690162888893768, -0.6717068906930481, -0.6845340158050652, -0.6856932768188677, -0.6560601310002236, -0.674303303889654, -0.6869622512052347, -0.6969773819672984, -0.7164986873543052, -0.7042951065114419, -0.6934939684670001, -0.7027605691250002, -0.6998616216725896, -0.6729619555611235, -0.6706591772808169, -0.6947395429607525, -0.6876483990536639, -0.7007066677036663, -0.7215556945937197, -0.7446644159920499, -0.7306714416818527, -0.7375025537858078, -0.7432229275487636, -0.7776921492580087, -0.7967337598932868, -0.825238553512533, -0.8050638968501528, -0.8313491835346803, -0.842647620928977, -0.8321684141791121, -0.841662723136745, -0.8458125354628928, -0.8402727347230516, -0.8619878071861543, -0.8994572013849818, -0.8644250380968677, -0.8641608223776307, -0.8788511847193812, -0.8756445018008516, -0.8756802269918903, -0.8700780898293032, -0.8568270780887194, -0.8822497324436328, -0.8926063308446843, -0.9325318505292736, -0.917206111462081, -0.9465511541195603, -0.9832841415863535, -0.9779112398251018, -0.9775748739432487, -0.9859724270327617, -0.959207698517378, -0.9687724749419251, -0.9897039996824744, -0.9880293035313735, -1.0302044249575966, -1.02968480927877, -1.0370949205088962, -1.0551084462429168, -1.044150042836106, -1.0957809489897967, -1.0832645667235818, -1.0762422099700453, -1.1034834141518295, -1.0960064809375885, -1.1226114174185948, -1.1359052233698719, -1.154390405180407, -1.1890611356828762, -1.2172659867600377, -1.2599199567013017, -1.2249416594716909, -1.2035406428786564, -1.2030181424031108, -1.226897904510002, -1.2463438520850834, -1.2698854988689463, -1.2490700256037561, -1.2760568635438099]",True,0.8000,0.8000,0.4000,0.1000,0.2000,0.0100,2.0000,True
53,nogo,Correct Rejection,0,2.0000,"[0.0, 0.0016632051280132086, -0.0005893638843691203, -0.026916204476505813, -0.03515084636772067, -0.04994965009240428, -0.05673261774198887, -0.05006862080074717, -0.07442035780414288, -0.07286507927406127, -0.09996044279299844, -0.14260676060871813, -0.16684010669794938, -0.15357967367231828, -0.1924632228876621, -0.16751169697506524, -0.1694281624400805, -0.19433503360391613, -0.22869020745486524, -0.22237616354994427, -0.2603343114441986, -0.27025697998766113, -0.2924616217080793, -0.2936781215645582, -0.2888135862233114, -0.34457915542035195, -0.38096443745568837, -0.42486352993994886, -0.4463217258011628, -0.4502182516962954, -0.4302651306311424, -0.45004189985507276, -0.42291100874654813, -0.44751368316024714, -0.46202175846332694, -0.4798105823712292, -0.480518980221915, -0.4501609600921557, -0.44203996720568595, -0.42982058636431864, -0.46053356260917977, -0.4633044116506633, -0.48851562455305597, -0.47333405786704497, -0.47217579903555806, -0.48917643158867297, -0.5400990860894339, -0.5542111458467253, -0.5722319655666727, -0.569791897127547, -0.574938414364613, -0.5836477254772356, -0.5929670920833017, -0.6026653799616565, -0.5970651591224693, -0.629041475831082, -0.6484980000046247, -0.6356313175248043, -0.6639201642258477, -0.6919302688723307, -0.6782464720986373, -0.671787384951279, -0.6583076594030214, -0.6728410864926332, -0.6600649682352736, -0.6517376187375771, -0.625442943745472, -0.6394501496699811, -0.6145408749282537, -0.62951410160615, -0.6678263443997109, -0.6911080050855343, -0.695335463727582, -0.6629114607124412, -0.6782567659284259, -0.6847940866052188, -0.6969268775361447, -0.7149796862108393, -0.7587700197630989, -0.7311564743741403, -0.769024674453323, -0.7848542220968707, -0.774792155830706, -0.7930034765465479, -0.8184386925945322, -0.831580767552592, -0.8548275451081835, -0.8656063131209925, -0.8679281939458557, -0.8856234965485276, -0.8779020825348792, -0.8486658202540892, -0.8558422457011973, -0.881429135337434, -0.9158608402025227, -0.9354439378580379, -0.9520365210159254, -1.0170661922971682, -1.0074037361285428, -1.0025124275574806, -1.0397419169678475, -0.9953678451048693, -1.0207674055842901, -1.024039219136296, -1.0299284021017647, -1.0351461459440805, -1.0611073057319955, -1.0689602677469139, -1.0680025283211578, -1.0679344724154223, -1.075068163463179, -1.0700227969338783, -1.058617781772341, -1.0478239806482257, -1.0602089952957245, -1.0627872810665553, -1.0447103036020018, -1.0646682446338191, -1.0829677123957875, -1.0965882481633737, -1.1141556460134792, -1.0862794626080112, -1.0803521207198696, -1.09913640739196, -1.0839308614632184, -1.090225476581623, -1.0936800328278637, -1.0953125061241964, -1.0805927862346134, -1.0638861833172766, -1.1150487313916186, -1.1181255846076112, -1.111337301926868, -1.1173813879462415, -1.1152330254351437, -1.1155310973242811, -1.126212427076705, -1.1283306281889298, -1.1539543980366225, -1.2017377316098006, -1.2044013555268238, -1.1991616444559083, -1.1843446213007063, -1.2112103265353695, -1.2519750222239325, -1.277680057594946, -1.263114396225582, -1.2735321120435847, -1.2896192601559087, -1.3214190804589858, -1.3294004627273255, -1.3241056357219754, -1.3322234467100826, -1.3207696133651008, -1.320190378621924, -1.3578720276455287, -1.3744252976758955, -1.3770941650500348, -1.3957474684506463, -1.368890989152771, -1.3701205787397843, -1.4033254533416286, -1.409546633941106, -1.4062917569408788, -1.396237663196387, -1.4167764697195426, -1.4365945722539162, -1.4242343122439032, -1.4193522769113347, -1.4478048307548361, -1.4559209798088606, -1.4362640504946793, -1.4688526981668588, -1.4735266358496695, -1.4605611595574621, -1.4841919155213277, -1.485127507257574, -1.5020241181559106, -1.5306310662969609, -1.535328888439223, -1.565707246804917, -1.5870397959189007, -1.5854018873206173, -1.6224599647516247, -1.648367213406577, -1.6445032055214244, -1.6654097762163387, -1.6667438387561746, -1.6707460399915077, -1.6768145641157317, -1.687778067571607]",True,0.8000,0.8000,0.4000,0.1000,0.2000,0.0100,2.0000,True
54,nogo,Correct Rejection,0,2.0000,"[0.0, 0.0037027505443142684, -0.011984709975413909, -0.023839790215636657, 0.018488383855325852, 0.015981479924612955, 0.022252534621586113, 0.02580513345666459, 0.03830019689038048, 0.03356051476555419, 0.012497314614948574, -0.023888472640810954, -0.04260877339396103, -0.05783964010399174, -0.06417111507936163, -0.046765772808011495, -0.08654370777002411, -0.11461661280951596, -0.11038869246759773, -0.14076572612182026, -0.18801238593206643, -0.20170055872064993, -0.23475477288658078, -0.2349786373475079, -0.23951105080527868, -0.24673753736151122, -0.25138924730840095, -0.24549943818789974, -0.265418247597982, -0.28013213273362, -0.22717772587546764, -0.24960507384656588, -0.22317208201980412, -0.2572250566545566, -0.2726167406324076, -0.25697549492199134, -0.24311075165972212, -0.28287235044894365, -0.3099379451408452, -0.31900587503214245, -0.30927619094614034, -0.31649996349726633, -0.3091008919983777, -0.3166590503727854, -0.30653052953195337, -0.319158469955206, -0.32714647335331787, -0.36441074431881126, -0.38661184078825134, -0.3927004309647757, -0.404355166494883, -0.3927832395041684, -0.43306381893777873, -0.4077511390780192, -0.39736411004509387, -0.41893033965957555, -0.42228627533804197, -0.4309013019313597, -0.41904456666554096, -0.44676235608327125, -0.4308690328049786, -0.42762960806398137, -0.44374107513114086, -0.4731924313026582, -0.4628544965720964, -0.43037566731033305, -0.45162764218494955, -0.47938633936268493, -0.4875096013578041, -0.4871751616207599, -0.5098547037383498, -0.4937206654145365, -0.5077250075165857, -0.5466557936354245, -0.5355208129101805, -0.5511623892933691, -0.5628139871575705, -0.5820123022402307, -0.6101988963637462, -0.5944639894979057, -0.5665718426758248, -0.5548412040524394, -0.5919646682880146, -0.592116138186248, -0.5742471981418577, -0.5737894838672242, -0.5730120239023819, -0.585073889251236, -0.5903145800702196, -0.5984483920237829, -0.6081697325506328, -0.6131134016156623, -0.6584295284771712, -0.7267636506154541, -0.7073090008637413, -0.7114400077843335, -0.702616516092738, -0.7014051558657425, -0.7086690617448579, -0.6922781440099345, -0.7209135795018685, -0.7750043017923604, -0.7848262886736831, -0.8148393594494153, -0.7967834979914382, -0.7931333613970482, -0.7831014228746584, -0.81747729872692, -0.8248844201400586, -0.8354143689737403, -0.8355124257860056, -0.8293477196381063, -0.7993550989647159, -0.7701631195895224, -0.7658058510303304, -0.7714632662036317, -0.7878485847436132, -0.8114796561800638, -0.809488169442602, -0.840650216062503, -0.8279701243066958, -0.8275384047855794, -0.8513885754638538, -0.8641925869582577, -0.8569132944199264, -0.8586953388051978, -0.8660025767593457, -0.882987755360926, -0.8565001336586239, -0.8562150015543222, -0.8849611261945072, -0.8978682484515832, -0.9124580659005038, -0.9073575820036822, -0.8972952861066044, -0.9279199045452645, -0.9666833786513903, -0.9789758439200607, -0.97937007505923, -0.9790019350853121, -0.9837639563084702, -1.012965825793461, -1.0374369024570556, -1.0119398902985302, -1.0275006453150024, -1.0260237563487056, -1.0391360177414208, -1.042043021805572, -1.0398972465943412, -1.0534826430757906, -1.0596564320183695, -1.0628237405558416, -1.070586221991185, -1.0963564581104894, -1.1012056701462234, -1.0959607496135328, -1.08752542530573, -1.0876992622952266, -1.043773750671756, -1.0091392340070973, -1.0271558103697938, -1.0126374150333088, -1.0206734752086544, -1.03175052359833, -1.0105026096438317, -1.0018616804289469, -0.9998412031556906, -1.033755376485713, -1.0284124720997962, -1.050385762473068, -1.0505844634691315, -1.0473310957759063, -1.0425124849648884, -1.0305273161699888, -1.0145704983762773, -1.0545832587938844, -1.0587820497837275, -1.057351393481478, -1.0964002299380111, -1.094059262998404, -1.0675889810512644, -1.0786864343535907, -1.0981160347970844, -1.097868002780931, -1.0918231495499504, -1.0851102522717342, -1.0963195266878647, -1.0645994174980493, -1.070227927949086, -1.0827608825658155, -1.0943336989138024]",True,0.8000,0.8000,0.4000,0.1000,0.2000,0.0100,2.0000,True
55,nogo,Correct Rejection,0,2.0000,"[0.0, 0.011144033771450622, -0.004405960459188557, -0.04866253015072384, -0.028657138999400117, -0.057399772163203695, -0.03190492062803624, -0.0072681307115975355, -0.05870874511805049, -0.08673417116978087, -0.035382071446154656, -0.04879284207164487, -0.06051920027506355, -0.06828544777046802, -0.07015305548364907, -0.0952285538524157, -0.1482072456188896, -0.16734646442672038, -0.16985019258188785, -0.17789827766091437, -0.17276231352252985, -0.14350960703133517, -0.14589034445507632, -0.13000113912942451, -0.106578201149863, -0.10181810699742853, -0.09889686715270218, -0.08257206945085874, -0.07463311939427096, -0.07167592622485455, -0.04675985027825458, -0.05166349956359407, -0.06459942023503627, -0.10909407953081016, -0.10958282236525539, -0.1172709484463518, -0.1180301846910319, -0.1257655420952953, -0.15405917729840757, -0.16265772514380608, -0.16777359224635802, -0.20198977806964205, -0.20956570601503186, -0.20994174969848708, -0.2245975840960161, -0.24103230936553477, -0.23874883391407375, -0.21972570960480653, -0.19959677259828076, -0.195818002778792, -0.21335366799906672, -0.2518755266700167, -0.2579271135002491, -0.25259151064326696, -0.25429972275208673, -0.23331381907723034, -0.24360519987682094, -0.26324158309102347, -0.2875294139143908, -0.3007268854331623, -0.29549656662839974, -0.29120756234441547, -0.30161777445362997, -0.3164614243185781, -0.3301717257645986, -0.3082469226743021, -0.2883718324673208, -0.29907857442556945, -0.3204062607769318, -0.3274005327683124, -0.3422747692745108, -0.36261124844417547, -0.3859270870793734, -0.37634488357479506, -0.40494147741097647, -0.4115842035479183, -0.3808978853701319, -0.39092410922215104, -0.43927248786837014, -0.4738910909816399, -0.51332511561842, -0.5111093039466622, -0.5326435918688488, -0.5337081073951919, -0.5388262208298507, -0.5467703332540848, -0.5571908040853343, -0.5732437071484603, -0.602933736838895, -0.6130405454108679, -0.6315950160782428, -0.6306370430540296, -0.6465298582732796, -0.6579111568968491, -0.6607011334836411, -0.6286084186627576, -0.6422200592693404, -0.6965789617104879, -0.6992321789586943, -0.6882836568753947, -0.7083257010860642, -0.7088886392148517, -0.7084826989657599, -0.7145794191280201, -0.7455850114465912, -0.7525737966139764, -0.7638670517895437, -0.7814880297096649, -0.8131263808227643, -0.7955471592312372, -0.7950556561266926, -0.8240828042341138, -0.8031063966953143, -0.8194259608855192, -0.8401008587010751, -0.8534846657090056, -0.8430038566578423, -0.8449672676519007, -0.8439374706812404, -0.8678446825662512, -0.8804966142985532, -0.9146763598299883, -0.9219454509897629, -0.891739744851889, -0.901631232503515, -0.8947663367648251, -0.8746211563948533, -0.8877003390759034, -0.9146663376307053, -0.9181429013571855, -0.9121395266908192, -0.9142962764718624, -0.9322213651268924, -0.9153822477509592, -0.9645046493468179, -1.0068035085221647, -1.0098727653715562, -1.0529529984204582, -1.043636691323494, -1.0486067898797682, -1.074623082336573, -1.0574300427315175, -1.0652851583085388, -1.088665985466296, -1.0541474525498418, -1.0674242044685647, -1.088446925066025, -1.1358618539862704, -1.1568958360539399, -1.1762008276377212, -1.2063923414958224, -1.18830852270816, -1.214862223228789, -1.2007898379649107, -1.1905208513646026, -1.2186927218136128, -1.2755688154176714, -1.2834473419164198, -1.2992662356920597, -1.2970057505520531, -1.2762368290360202, -1.2512572867478338, -1.258055895794566, -1.2613541037491236, -1.286316629025425, -1.2981040085532967, -1.2858271814194557, -1.273887161671597, -1.2426748379442838, -1.2743770814679163, -1.3061085973680233, -1.2901147808916502, -1.3005914573382509, -1.3010683970496735, -1.3274871238303783, -1.385946612231494, -1.3695998689777098, -1.3707957202832186, -1.3958903706056744, -1.3711254150801184, -1.3363025791368093, -1.3583122531103595, -1.3493069858830307, -1.348532616251662, -1.3446506251557204, -1.3799540840958893, -1.4160658247982254, -1.4139056905026302, -1.425662766174056, -1.4551105205106785, -1.4816111152077533]",True,0.8000,0.8000,0.4000,0.1000,0.2000,0.0100,2.0000,True
56,go,Hit,1,0.1400,"[0.0, 0.006298765995054368, 0.04683858806674188, 0.09392659819503141, 0.12469822258154845]",False,0.8000,0.8000,0.4000,0.1000,0.2000,0.0100,2.0000,True
57,go,Hit,1,0.2200,"[0.0, 0.014880442636751673, 0.004930775897146435, 0.016232589853598822, 0.02203848600737588, 0.03490270948307275, 0.02399631685642482, 0.0409907892104118, 0.034600091868271926, 0.04064623065288712, 0.07197894219140108, 0.09467418023203636, 0.10218665106931626]",False,0.8000,0.8000,0.4000,0.1000,0.2000,0.0100,2.0000,True
58,go,Hit,1,0.4000,"[0.0, -0.029480981502211026, -0.014750298356959419, -0.026182505665399747, -0.026081971700661104, -0.013560926851091027, -0.004923250476214218, -0.034242020929163064, -0.002332926175475765, -0.011195880248099085, -0.014206877304730912, 0.009295707632584521, -0.009073452447229033, 0.012941440678318065, 0.01704667115046692, 0.006312759133505895, 0.010281909871826304, 0.06083358150201822, 0.047856035141146606, 0.05712209576446293, 0.025288941672388654, 0.049725895155455044, 0.05209655548145764, 0.04866655080067393, 0.04708801669711351, 0.06006641467126813, 0.05922496659977029, 0.04621443812900963, 0.08492957747370376, 0.09111333186775163, 0.10090714145125937]",False,0.8000,0.8000,0.4000,0.1000,0.2000,0.0100,2.0000,True
59,nogo,Correct Rejection,0,2.0000,"[0.0, -0.030034676299426244, -0.04754308611242711, -0.07040761654133716, -0.10361763339136736, -0.13704196348825382, -0.13971806531617786, -0.15027227463384593, -0.1666902416580134, -0.1714888370291698, -0.1920215529140087, -0.203247172840045, -0.21609597829901875, -0.22544304857039477, -0.2684307978026152, -0.26942269061480295, -0.26593060649927497, -0.25832810256037364, -0.2575880587790678, -0.25718434734911316, -0.21579350038350825, -0.21753583320656003, -0.25631229233249103, -0.25915353003779246, -0.2630217171248655, -0.27323169589278345, -0.2713590230490894, -0.3124482740184265, -0.3230918696522487, -0.28835575370479977, -0.27774824521067554, -0.3037765450531086, -0.2968765149694044, -0.27904419439247613, -0.28364410267658335, -0.2770113512336219, -0.2563684006203098, -0.25525094703864054, -0.27694403859121364, -0.30577791068682225, -0.3379943427181632, -0.38698836313859714, -0.3928290439044748, -0.38522928724344035, -0.385199724469104, -0.37719330759596315, -0.3978072019648524, -0.42497988369424505, -0.45710378994332884, -0.4608780511953619, -0.49573971610860257, -0.5297206769465885, -0.5492636382596512, -0.5468322361716731, -0.5374899578212774, -0.4927249539268097, -0.5073447642981739, -0.522008903635197, -0.5530780385154561, -0.5649378190422314, -0.5507302446601299, -0.5444998143049568, -0.5703539051368666, -0.6000660551949831, -0.5733877220330953, -0.555877855791993, -0.5685408508458853, -0.6011797236694019, -0.6293485441327165, -0.6629949607449941, -0.6724333719734026, -0.66298570006218, -0.6621760122691682, -0.6567970944618318, -0.6668414052732548, -0.682116487326406, -0.7060378682854873, -0.7083373927507078, -0.7109462676932701, -0.7303220383529426, -0.7369079366674749, -0.6905150533293309, -0.7200136864152116, -0.7417755744934313, -0.7358554530105174, -0.7597478777029204, -0.7874267148035305, -0.8059134826388167, -0.8001580736604512, -0.8176352739815261, -0.8654976083575123, -0.8549106549866456, -0.8759518420936987, -0.8574658116968299, -0.8729703269476241, -0.8940018973631618, -0.909044581076647, -0.8698808390005384, -0.8611983169856701, -0.8584837183739296, -0.8919077912666077, -0.9274493578047666, -0.9336441660382413, -0.9509918244183152, -0.9810648150701077, -1.0061274831510232, -0.991067298152232, -1.0085281769196979, -0.972738432650162, -0.9939935089338269, -1.0115934211630702, -1.0255183479130836, -1.0155045459671401, -1.0189327467341665, -0.9802374193041568, -0.9848142610292363, -0.9663738862482726, -0.9456945449859055, -0.9159788635847981, -0.9467108269191647, -0.9495619463538431, -0.9444443814729101, -0.9489353855660277, -0.9806571558520655, -1.0043657549032767, -1.007609406003556, -0.9824765910430517, -0.9734301341506055, -0.9785527796693136, -0.9785491608443665, -0.9882065782781218, -1.0084835834602153, -1.0372444541581933, -1.0631151568279615, -1.0749658454489655, -1.0867035238982865, -1.0982841450922, -1.126642577707006, -1.1027532063639596, -1.0943590466228508, -1.1013505086786735, -1.119601539712725, -1.1317224483879627, -1.1370252738796387, -1.1279064177136469, -1.0936294325315719, -1.103466788599873, -1.0835393039167327, -1.0705162034651374, -1.091653791312913, -1.0800550894790122, -1.0904096650250783, -1.098418076894292, -1.1016607625324002, -1.1385201884101661, -1.1630102044966035, -1.1887276162704528, -1.154192019632389, -1.188224384342539, -1.1908785621654814, -1.190843870470894, -1.2246864246551121, -1.2255265454732556, -1.2047894968951534, -1.2062638674600614, -1.1754237044624098, -1.184393395046824, -1.212666557321896, -1.2172806627068606, -1.2230418669850207, -1.2597406578480586, -1.2870563753245832, -1.2767727401332343, -1.318802140821595, -1.3326433785082354, -1.3471446170443042, -1.3548286801944511, -1.3826805303953986, -1.3498821723152132, -1.3517605488171245, -1.3664448420301012, -1.3896264709305994, -1.4022427029732198, -1.4305052617861886, -1.4229168446970042, -1.430798612713616, -1.444544027323647, -1.4354738400183222, -1.4435829859965157, -1.4522760693809689, -1.4620249064825857]",True,0.8000,0.8000,0.4000,0.1000,0.2000,0.0100,2.0000,True
60,go,Hit,1,0.1800,"[0.0, 0.01900869733913982, -0.025800540981082254, 0.006264834633551319, 0.022829014361621082, 0.06399291507796967, 0.06391377508348671, 0.08359439043174258, 0.116659005019524]",False,0.8000,0.8000,0.4000,0.1000,0.2000,0.0100,2.0000,True
