trial,stimulus,outcome,choice,rt,trace,timeout,w_s,w_n,threshold_a,t,noise_std_dev,dt,max_time,affect_stress
0,go,Hit,1,0.1500,"[0.0, 0.006594389125060229, 0.016918363666875467, 0.060162732264172125, 0.07905424532312068, 0.10049376677540647]",False,0.8000,0.3000,0.4000,0.1000,0.2000,0.0100,2.0000,True
1,go,Hit,1,0.1700,"[0.0, 0.03353080028420393, 0.04005586326314419, 0.04415508544283174, 0.0646757082321527, 0.05893211182785371, 0.09635521728856612, 0.10567466426045874]",False,0.8000,0.3000,0.4000,0.1000,0.2000,0.0100,2.0000,True
2,nogo,False Alarm,1,0.4200,"[0.0, 0.0012640843341016872, -0.017713642787442575, 0.01518677333741968, 0.013190778727061736, -0.013601558386214097, -0.021498563061740333, -0.018244433012963367, -0.04287859021023138, -0.046964443918429515, -0.03883187354732803, -0.0040839792553546694, -0.03831195613644996, -0.024369429650258196, -0.011465723640910221, -0.053296097791545025, -0.028716692714741206, -0.030098736684575047, 0.006141852140841422, -0.027141461608115824, -0.016956675892027682, -0.00807803577798082, 0.021042497639489306, 0.024769022906750766, 0.039899364018418, 0.04007535389017291, 0.05199583924255418, 0.04461046736655542, 0.05241649867683681, 0.05254328760140882, 0.0718904630623723, 0.08899813809652457, 0.1038919175752166]",False,0.8000,0.3000,0.4000,0.1000,0.2000,0.0100,2.0000,True
3,go,Hit,1,0.1900,"[0.0, -0.009283065066308258, 0.003147072296351472, -0.024599232971272082, -0.018096054235818802, 0.010295080312690625, 0.06377177453173152, 0.08179783230791073, 0.06556000979656047, 0.10772311779988608]",False,0.8000,0.3000,0.4000,0.1000,0.2000,0.0100,2.0000,True
4,nogo,Correct Rejection,0,2.0000,"[0.0, -0.02229368188833058, -0.022139836574253304, -0.03278888474836274, -0.050220529025539744, -0.03042379883680543, -0.04782389019092913, -0.0710417282085336, -0.08958904689934152, -0.0913590938608225, -0.09415753649866807, -0.08232067515561507, -0.07545428591622759, -0.10894556155432984, -0.13341999515566702, -0.16318331047424925, -0.1917891494251242, -0.18171089645290067, -0.14115998984216252, -0.13591881684327276, -0.16429674654583437, -0.16877289545664162, -0.18117481603422556, -0.18958920432854082, -0.19519522229033695, -0.2031086279244036, -0.18098317953897075, -0.16333362913590738, -0.15992862866010796, -0.17017115325188353, -0.1453158228556901, -0.15544461433194495, -0.1280598693305953, -0.10435456427479065, -0.1409569199587839, -0.17097525774044114, -0.13645736690108376, -0.10922090827788988, -0.09198526549978245, -0.05908444949194053, -0.06008043713078214, -0.07020502696878413, -0.07794898287128976, -0.08890512937279436, -0.12103085589429774, -0.1171878451115848, -0.14027858672140386, -0.13838140295708817, -0.15504208490008492, -0.1488106439683788, -0.1851640813684059, -0.22084040726441856, -0.1928503277911424, -0.18885033260076264, -0.21291187736528172, -0.22539454302496725, -0.25417778943796054, -0.2709521409395275, -0.28204857881954426, -0.3010883656738594, -0.3055021900124987, -0.3254551070049103, -0.3342319349180197, -0.31854514453485144, -0.3226527186343447, -0.333015765128073, -0.33280374930420226, -0.3299690500095737, -0.32450611615554353, -0.27939887508819994, -0.24874308528709357, -0.25818831811409754, -0.2863794341966417, -0.30359586152022777, -0.31603465718927376, -0.3032413076351253, -0.2891527135224877, -0.26235371265154045, -0.2500674602144215, -0.2230835472658088, -0.21281743812882808, -0.18152236797831664, -0.21645566180976678, -0.2581165745323992, -0.2828696762268356, -0.2638373202633715, -0.2721006808158294, -0.2682111017714965, -0.24783659546566747, -0.2708877543680956, -0.27905265725888484, -0.2520076175118962, -0.29914374952905726, -0.29805649256632244, -0.3339026129036436, -0.3697368107067067, -0.38572344477866116, -0.4063917315106161, -0.3936536259253111, -0.40431781350839124, -0.405450422065393, -0.4063009472615068, -0.40813905099002723, -0.4218566039568463, -0.41016635576806987, -0.36889688125727504, -0.402966326111152, -0.43299728627998657, -0.45653763868245645, -0.4532363037580749, -0.46149609566908695, -0.471447486478859, -0.4588717786722457, -0.44635570407041836, -0.4239510051354496, -0.4029215516490783, -0.4170633183563804, -0.38541617765785396, -0.38052065909561583, -0.38553929974477963, -0.3878014775304079, -0.3833807000105605, -0.39186747642685515, -0.3968838247965242, -0.4113204501575525, -0.4196399191637866, -0.4358913157679845, -0.4355247386347016, -0.43702457369552, -0.455665287379944, -0.4815559166758551, -0.47607473953642704, -0.5016884355490364, -0.49000417978670685, -0.5071857425048142, -0.4952746864474665, -0.4890519221306312, -0.47466963476944724, -0.48886692996453424, -0.4741200730302379, -0.4827496599228297, -0.5015513651574055, -0.5026237352269436, -0.4975250986238711, -0.475233578501076, -0.49208426597975036, -0.5009112437907918, -0.5333168464224751, -0.5093326665707493, -0.49837034674512837, -0.4963476327595153, -0.5134156429960146, -0.5635735752772655, -0.549002625109889, -0.552838628100476, -0.5686585219617069, -0.572570262110156, -0.5984272534260973, -0.60438341919415, -0.6315809031173751, -0.6364574354632332, -0.6624557456274324, -0.6708981605966203, -0.6852673799393357, -0.7127212615631114, -0.7250071868993787, -0.7166801408547675, -0.708651022048972, -0.6954666427263219, -0.7093363212438035, -0.6902970899859677, -0.6846768958299536, -0.6864624826557454, -0.6638420351269928, -0.6628981774530304, -0.6593470098666008, -0.6665790178106962, -0.6685093781960539, -0.658514450236406, -0.6864769699675657, -0.7123689013667241, -0.7326169859181645, -0.7447736208703495, -0.7145731820319068, -0.7241670264610254, -0.7637840893823346, -0.7391681799393279, -0.7371147570498379, -0.7419286092005982, -0.7013878625353238, -0.7050757328081908]",True,0.8000,0.3000,0.4000,0.1000,0.2000,0.0100,2.0000,True
5,nogo,Correct Rejection,0,2.0000,"[0.0, 0.000581481791250647, -0.04188280197632055, -0.04712418126165446, -0.02446169112549163, -0.013502229731587524, -0.029568043004005392, 0.0082994577486926, 0.0316637285267086, 0.015283090419392274, 0.02007461569604336, -0.007641313215932685, -0.03812573103548075, -0.05642482124996025, -0.061210421854062724, -0.06063326250151932, -0.049676919568222226, -0.0618521999009443, -0.04819219537581447, -0.0883154399319818, -0.08938663069018518, -0.09404072408962719, -0.08220534383474232, -0.06972170202412065, -0.08530552837929706, -0.04576082431501079, -0.03354059329513126, -0.018781476374016844, -0.02126964753119947, -0.054454809917304704, -0.05436890139491269, -0.04971801821558853, -0.07249466775052034, -0.06180149396393354, -0.051781915286688907, -0.06611371498505653, -0.08350657817718223, -0.06409298439157107, -0.041483512350105944, -0.030888532909375634, -0.04041809567661962, -0.03652674111371253, -0.030826291174087507, -0.07197629425710966, -0.04761122696985513, -0.03926857118117065, -0.03146834745862916, -0.05015731551359871, -0.06514853826424104, -0.06966501852078165, -0.07702542096027784, -0.06984444038273761, -0.059087516945822746, -0.030698814116617526, -0.04320000421668482, -0.09839767004100872, -0.12267450572118069, -0.10690911164873279, -0.1130357348485311, -0.12657382396735772, -0.12299092982989984, -0.11533780719286821, -0.08409231459409638, -0.11337763167007942, -0.11964410660904246, -0.1319093401070371, -0.12181469148929505, -0.11150135751834737, -0.14006049675585347, -0.11506102770174031, -0.0906596262942386, -0.08626326690228735, -0.05819964680261901, -0.017903883704464316, -0.034761033036041694, -0.004287195632037034, 0.019697900652707333, 0.019611663349682368, 0.05824583878134252, 0.03519710249294444, 0.05361845328861791, 0.05055265489684539, 0.05947754959368681, 0.04827641907294002, 0.0535280539605795, 0.021782934974520288, -0.011309883761882918, -0.03466416402536986, -0.0020287170538507496, 0.024698606300702305, 0.018685735605997338, 0.0017883082530115932, -0.0010700443211392936, -0.021145408734583808, -0.01909961649666315, 0.026917076992529664, -0.009646944322760562, -0.01431188756925404, -0.006210775838845798, -0.04739687766483061, -0.07368308039111185, -0.05412581484327733, -0.07260752259478227, -0.053693201099577564, -0.07028439967627284, -0.031338062211415066, -0.026454084760969634, -0.019526876294194223, -0.05505966168076847, -0.06440512183326201, -0.05736990650941109, -0.07726241100550281, -0.08252453341274593, -0.11234989779136294, -0.09186494294464727, -0.11365376806794476, -0.10405401241519266, -0.11429026183886154, -0.1106042543024624, -0.03649058930943226, -0.05601841588702697, -0.05778133148989974, -0.05760099377977359, -0.029262261916987452, -0.03208799699094978, -0.04357936396096334, -0.0729737258188568, -0.039444036153370936, -0.05183211577682577, -0.0352921084858325, -0.06715699668401146, -0.0663714590917683, -0.08559954716087827, -0.09682480514745966, -0.10923010791032065, -0.11627023987721732, -0.10353054909311216, -0.11403135922549285, -0.1300553288271517, -0.15519067676290496, -0.13791032261180033, -0.15350290339142525, -0.15784492680673756, -0.16989582281912222, -0.17552174435498574, -0.16421872405750504, -0.1669118338508858, -0.16783726242932193, -0.16698886871996665, -0.15179154100581965, -0.1478753135206971, -0.12345181390718188, -0.10719143789842105, -0.11638212995435498, -0.10446179053483634, -0.10544732267071921, -0.13276496127481047, -0.16496819869661514, -0.1532311573953193, -0.1608704312522956, -0.11688091671431738, -0.12388370726989577, -0.1394278099219498, -0.1840659055092979, -0.18065956229414176, -0.1967080555030615, -0.19238821724256042, -0.19012006787557462, -0.19348803564240552, -0.1753222515575924, -0.15660191127632675, -0.13619861575997505, -0.11282398401165394, -0.11047696676834304, -0.14344989667811606, -0.13749165561362175, -0.1271690149343143, -0.11342575806597226, -0.1287025207343523, -0.11640153590283628, -0.13585821470656984, -0.1443835912188284, -0.13747929364079656, -0.14968251685657707, -0.1744708055443689, -0.1894295293830865, -0.22864080202888173, -0.2492462408664278, -0.28745784962476517, -0.2734028702826871, -0.26585617797938876]",True,0.8000,0.3000,0.4000,0.1000,0.2000,0.0100,2.0000,True
6,go,Hit,1,0.2300,"[0.0, -0.01361135523616136, -0.01723038859306259, 0.011215167500906079, 0.007362726935662634, 0.016548636498054964, 0.03095844609910782, 0.04812559324218592, 0.05330101298862369, 0.08042591205287344, 0.07145020796121486, 0.08243149398367458, 0.09181819866699442, 0.10577075177553613]",False,0.8000,0.3000,0.4000,0.1000,0.2000,0.0100,2.0000,True
7,go,Hit,1,0.1700,"[0.0, 0.030239451146652208, 0.04710262786124547, 0.06653787430477688, 0.08134631639425917, 0.09166891850937343, 0.09258337728598307, 0.13540518031972065]",False,0.8000,0.3000,0.4000,0.1000,0.2000,0.0100,2.0000,True
8,nogo,Correct Rejection,0,2.0000,"[0.0, -0.007957004780653216, 0.0069567994489242654, 0.061622283735106205, 0.010810699950168513, 0.012524364186080895, -0.0015768930925526125, -0.021211682545525752, -0.04387503034535517, -0.07045044769488473, -0.10197346970268815, -0.11124354761842536, -0.09082490286194907, -0.1154568143781814, -0.09153512198663896, -0.05814047235489631, -0.05893560258120292, -0.05591686843402247, -0.04520126934603171, -0.03531701442323945, -0.02480398239289659, -0.06263637683776918, -0.05524246641884233, -0.046163076507737356, -0.06811113719103817, -0.07318720866367762, -0.06322514781745234, -0.028279354547035264, -0.049923382832669845, -0.08205414600750796, -0.08665760290789665, -0.08819090906513788, -0.10659206170553275, -0.10284558346529299, -0.10286986789599327, -0.11773986752220977, -0.12657621726716312, -0.1351205286759154, -0.15950709682541475, -0.20886823316983036, -0.24222745824324632, -0.24974620562091382, -0.271584426443044, -0.2810914985286584, -0.31221609921466453, -0.3437998474417397, -0.3381726811633871, -0.3186113019754058, -0.3136195771714874, -0.2960281057868199, -0.2966957365189146, -0.31914146487820355, -0.31457658912262465, -0.3000663298103419, -0.36396779144136154, -0.38372042634539794, -0.4146667774702006, -0.4080553763209192, -0.43273873926176665, -0.44696907014939413, -0.4570194861448967, -0.508497384811907, -0.5295030506037967, -0.5672864821487679, -0.5928335553456362, -0.5985021744279413, -0.5995033473707178, -0.5845610787865816, -0.6071251271020566, -0.5719277075643747, -0.5500482244554203, -0.5748414685748712, -0.5716354252531766, -0.5763051416016327, -0.6014748864256708, -0.6044288933018968, -0.6135035689836393, -0.6116520123950607, -0.6476128860577106, -0.6830373798659316, -0.6813748254795902, -0.6803794104857732, -0.6806532827433893, -0.6785468263493426, -0.7192396791218283, -0.7149238777980269, -0.7270131449762961, -0.7255392768546809, -0.7313377059133006, -0.7575124569206197, -0.7680537318976586, -0.7478693251076015, -0.7850736708336596, -0.7855824260019035, -0.8024093864374867, -0.805539483512064, -0.8268640496143495, -0.7992595794250048, -0.8266549672689361, -0.8444101674826968, -0.8670780504571691, -0.8756657896915787, -0.8614970605258674, -0.8527569202313097, -0.8686772918059038, -0.859846049924528, -0.8768257495150941, -0.8678806375635414, -0.88879886565105, -0.9322072251320389, -0.9016244738416807, -0.8814946664612416, -0.8975562475001325, -0.8971407476331348, -0.8887252278306969, -0.8951937002917352, -0.8959198658973903, -0.8888562347492723, -0.9020638012443385, -0.9143352848078546, -0.8838791879195029, -0.8869156683638605, -0.8920702029800813, -0.8939357243928416, -0.8541711695096923, -0.8569036408931572, -0.8327708068381906, -0.8381338081300368, -0.8657674662623429, -0.8559405206751483, -0.8634742337244933, -0.8839197608439117, -0.851248748636392, -0.8800281035573511, -0.8975256296143058, -0.9229144192426442, -0.8961765604401617, -0.8781353005743576, -0.8943835733189504, -0.8928528905450963, -0.8814956418257047, -0.8720346648555294, -0.9165947461610355, -0.9120307979985202, -0.9365427604375506, -0.9295398717445882, -0.9267224798216648, -0.9447469065622227, -0.9664503984372051, -0.9783043278843554, -0.990606798224833, -1.0163190681436347, -1.0462718020515132, -1.0371191407312872, -1.0571892316637967, -1.0903659985968044, -1.0886545666777814, -1.109670785228386, -1.1074926735492088, -1.1424156993226988, -1.12940701449635, -1.1675866387876912, -1.1626458585494235, -1.168400416977984, -1.1843016547674463, -1.1710048027340791, -1.1800598938168403, -1.2083299723198355, -1.218273815092158, -1.1954867266044482, -1.1894083706346679, -1.1735373946769467, -1.1438369722230477, -1.119945267734091, -1.1140374320922366, -1.1172490387204488, -1.1375923751517432, -1.1222545793993406, -1.0936396246900109, -1.0821259646668377, -1.1014104540363654, -1.093814416407799, -1.0859356361716097, -1.1170998421493017, -1.1384807254331972, -1.156002236497706, -1.1756769012448143, -1.1650196062495624, -1.1812041471608765, -1.1514957383552515, -1.1701198742247898]",True,0.8000,0.3000,0.4000,0.1000,0.2000,0.0100,2.0000,True
9,go,Hit,1,0.2300,"[0.0, 0.0019340019788481426, -0.026431905015395194, -0.016502005765032295, -0.020220442588299015, -0.014182461423222395, -0.010274214603452552, 0.02388119587471312, 0.015623002479717606, 0.07349655134384157, 0.07648128653523419, 0.09445872042644568, 0.09963528455022856, 0.11025276139838028]",False,0.8000,0.3000,0.4000,0.1000,0.2000,0.0100,2.0000,True
10,nogo,False Alarm,1,0.2800,"[0.0, -0.01369094991145339, -0.0001651699230486789, -0.0053846513002369315, 0.01622475209173231, 0.021098071247459056, 0.00035047455969627536, 0.02406806709664647, 0.01584038923696312, 0.010311412661824884, 0.04178559567234189, 0.03240203127378057, 0.038346732538315616, 0.044186189128870144, 0.04725704912082954, 0.06453856012564727, 0.08160423629838578, 0.09731187266740733, 0.10974083373420057]",False,0.8000,0.3000,0.4000,0.1000,0.2000,0.0100,2.0000,True
11,nogo,Correct Rejection,0,2.0000,"[0.0, -0.01884607508655595, -0.0029315974834730335, -0.00287910678482492, 0.018281526422509794, 0.0005212763761827631, -0.0008207545708730384, -0.0019326068550876677, -0.004118981589247041, 0.02702220339023067, 0.05222899675234724, 0.025818720979498923, 0.003071620770707495, 0.010507502211564875, 0.01851602044758392, 0.02677388247657431, 0.021534949329729, 0.0031511754795129215, -0.0031752121605893753, 0.003657762567628591, -0.019755150724108144, -0.028315372188860446, -0.012063911459633425, 0.009378678724729566, -0.03217552458507175, -0.03281518053652439, -0.058506555223699686, -0.060476581537906235, -0.051873151680127266, -0.0637564796994118, -0.06253423536194698, -0.05217438939869491, -0.04219538288124041, -0.053205964639863615, -0.06404727104181965, -0.07656102934823605, -0.06344453528064542, -0.04412910906933091, -0.01635219414918352, -0.009485801152058122, -0.03144930528315755, -0.023187506088281795, 0.0037033043878300365, -0.0013370002862669733, -0.021113572262958014, -0.04923937749316838, -0.05169846017043911, -0.043648862337906054, -0.006497423395414606, 0.009283043021322861, 0.007402948917461268, -0.003698424712635885, 0.0023888613136731534, 0.0036332150934408054, -0.013323492846384028, -0.007297318914320478, -0.00407676399469141, -0.024901909836241565, -0.03514159666342416, -0.027600672502149832, -0.04678087199003476, -0.03521337214900985, -0.04700774194600903, -0.05377803503101426, -0.052540518531913584, -0.0687633467262815, -0.1042479996556354, -0.10361913267752834, -0.09139676697515191, -0.10937729338118016, -0.14331812530314358, -0.143082513780175, -0.1304294149146879, -0.16943496263309815, -0.1475595214187947, -0.13584581051324626, -0.12715735625754962, -0.12208625881784234, -0.13249480594071503, -0.10967491274877292, -0.15344759609639763, -0.17009927537215755, -0.13818787860634352, -0.1796762373999351, -0.16484645815167145, -0.1299810611758162, -0.12493683766494466, -0.12866192192099077, -0.1367592335915301, -0.12744117995251367, -0.1202288293546924, -0.10779777209863717, -0.1073250832784962, -0.10149301833793406, -0.09344504869423817, -0.08691398300851821, -0.08806770161035209, -0.05551798663937318, -0.06573758013636141, -0.07547557612015787, -0.04874066558690174, -0.012407650598001307, -0.05601269653513723, -0.07721091853442598, -0.06005884585337142, -0.049036384875478393, -0.07253534413337144, -0.05795637535786202, -0.06227138784683721, -0.07994785606467353, -0.09693653418417521, -0.09242544110242044, -0.09703437115437899, -0.11627520693837812, -0.10963204474598895, -0.10730663677310455, -0.08935749341782043, -0.08830559006510284, -0.1309529373292685, -0.09610433521517799, -0.10874223868660422, -0.11531424654444203, -0.07600935917546642, -0.07848776968965179, -0.06708409422746693, -0.0718113882675373, -0.11237337210927954, -0.09834094909705747, -0.09449781212764674, -0.0740342556894859, -0.07070787701445579, -0.07114690593608371, -0.05690692849731606, -0.06008653166988472, -0.0842663055243727, -0.1087989424465628, -0.11207212261968844, -0.09962832038667015, -0.07716577657097681, -0.07390180235870593, -0.10230415458696146, -0.11062576376617, -0.10027575373541038, -0.0893097851021888, -0.12664817649051952, -0.13557324192231188, -0.12370410054901608, -0.12136206178414155, -0.14494148866261328, -0.13658264857808056, -0.11497991320055477, -0.09472863438684573, -0.10872884410929008, -0.09487142930149393, -0.0730669951112881, -0.08172302513899558, -0.1035652117938887, -0.11719634894702279, -0.09993523243019543, -0.08200620766028716, -0.06037897510558944, -0.08289235650312968, -0.03761172057246457, -0.04956926585245315, -0.05802797147818739, -0.03726376754989183, -0.05032812299001867, -0.038488913239292016, -0.0649672803763371, -0.09625743638657212, -0.10471211846038454, -0.12208821996336651, -0.07943418105961805, -0.051425260725836655, -0.069636770148784, -0.07742656013323629, -0.0785248483285892, -0.08171916656563429, -0.10760058634534611, -0.11719870568365379, -0.05824227560056261, -0.0679012071650703, -0.04284059184467931, -0.0554618555898444, -0.06069845900480201, -0.07782379539683043, -0.07095086281342135, -0.09812219731649588, -0.09470750453974981, -0.1340858022333229, -0.10880498245171179]",True,0.8000,0.3000,0.4000,0.1000,0.2000,0.0100,2.0000,True
12,go,Hit,1,0.1800,"[0.0, 0.0014723479226907967, 0.001925481777395056, -0.0012780347397307445, 0.06332138150532916, 0.05016490077593604, 0.0787346987750691, 0.09479145109898865, 0.1209468829722341]",False,0.8000,0.3000,0.4000,0.1000,0.2000,0.0100,2.0000,True
13,go,Hit,1,0.2400,"[0.0, -0.020974485672624322, 0.0032891300473219705, 0.03015592227525265, 0.022204626680040928, 0.042050870630618284, 0.05566863285221729, 0.055910263284049654, 0.05732696604460857, 0.07194814087116448, 0.06925095634189705, 0.08502297151584776, 0.08841736952761806, 0.09706177249217623, 0.1363892162791856]",False,0.8000,0.3000,0.4000,0.1000,0.2000,0.0100,2.0000,True
14,nogo,False Alarm,1,0.8500,"[0.0, -0.004610423380209684, 0.006478149672494915, 0.035450742416015424, 0.01127270820503623, -0.01499063901310127, -0.05176778083768069, -0.03260964645694894, -0.02039422341916855, -0.023297260411095373, -0.007640483737735789, -0.03378782440326834, -0.04588613815875085, -0.011230767082538638, -0.010349191786899156, -0.004816942339952981, 0.023006128323591495, -0.009600208701305436, -0.0008685454947205094, -0.011723741688712982, 0.001092710438005868, 0.004169786374011301, -0.020753390743820446, -0.007394014860062619, -0.013129050079066106, -0.020421152437377327, -0.03426888863014339, -0.04173173707797977, -0.030058581865869547, -0.05264511087850923, -0.06450395818788848, -0.09570245491830306, -0.06916002094198875, -0.08741189830508143, -0.12454620875423064, -0.1183102483992433, -0.12317776928502122, -0.1367485063408973, -0.1399548479583157, -0.11247865365500617, -0.0856701519836518, -0.09226634880027401, -0.0466514477200593, -0.040568037546798844, -0.00726332111900789, -0.023665327062160433, 0.002457124317913305, 0.04651354873807904, 0.04060360145852364, 0.054966794177961215, -0.0026798556909578414, -0.005932251251726281, 0.01532405988957354, 0.0044706157970238955, 0.00662732546247101, -0.014077265265319966, -0.006092543966867713, 0.005031920089491791, -0.00684758573123603, 0.0024822689721500125, -0.026399016994031566, 0.012960606132580429, -0.03189461869032689, -0.02763774834049849, 0.021371306050326794, 0.011779672708816372, 0.03210403561994858, 0.03091011594594914, 0.03254291346906652, 0.07457695785409642, 0.06995986309764061, 0.07038609232491227, 0.05562747514571976, 0.08751907513427115, 0.0924709265292884, 0.10596701155504051]",False,0.8000,0.3000,0.4000,0.1000,0.2000,0.0100,2.0000,True
15,nogo,Correct Rejection,0,2.0000,"[0.0, -0.006289967298110546, -0.024674251619005425, -0.015128915709251858, 0.007848006785934787, -0.015091274178079345, -0.05650216673751423, -0.01834010963752198, -0.00912254595960453, 0.0009863735874589205, -0.0036942343563589122, -0.013882227770460661, -0.021843389169480556, -0.035599668891704385, -0.03197914236245594, -0.038894115829791916, -0.004605909262037904, -0.012475483472982073, -0.006095570694472241, -0.015288567674039886, -0.04867514067472829, -0.037423498709808475, -0.031051329511352296, -0.03115367683834895, -0.029502193030712928, -0.027151661114962224, -0.01800752635996254, -0.003354302388592821, -0.013178748020516416, -0.032281310803786475, -0.04581226491390185, -0.033256359557998355, -0.031429191180116306, -0.029710431966953162, -0.031625883914875474, -0.028997839488028303, -0.03722357909223252, -0.04158510456305031, -0.05806633037631399, -0.0710232716764384, -0.07565992417078325, -0.08730366663326329, -0.07382326720462076, -0.05768553625319073, -0.06853434858167988, -0.06023460430382383, -0.0552162153742984, -0.054127609352052165, -0.06194651970627995, -0.07384434974070633, -0.07869641649698281, -0.09867140285450271, -0.06703272181355685, -0.09268010503831538, -0.10147108248106909, -0.08726998806794513, -0.05144982981141101, -0.06438108204615546, -0.07070960122395861, -0.09350720282865124, -0.1247027688753965, -0.12564837795030992, -0.13335156793188085, -0.12943033389186961, -0.13164217669556924, -0.12281441367948352, -0.14469994457371255, -0.16112187732646957, -0.16918957723759087, -0.15589755378368497, -0.16120589253885811, -0.17284461139727278, -0.1725840310803941, -0.14540545745166367, -0.16984409222161595, -0.1945399067178367, -0.1800039607400004, -0.16142113038675135, -0.15369824797432322, -0.14990077493955847, -0.1329005618490213, -0.11187692317315566, -0.1382579440203065, -0.1279745837057288, -0.17535310443126012, -0.16669437007008486, -0.16031857274624206, -0.17682766876547837, -0.16237968415303441, -0.1422965218139895, -0.12554949062370607, -0.1228698834879963, -0.15029033046516152, -0.12481465213120636, -0.09348378187739695, -0.09941055841337801, -0.07677167009118831, -0.08002137236842237, -0.07276416340896157, -0.01395156157726931, -0.04532848037900251, -0.05785834684506226, -0.03930021249340332, -0.04867910845456398, -0.06507400267534783, -0.08752600708094743, -0.07267910005706697, -0.06288154315764147, -0.08701712169921183, -0.12125562406724938, -0.10896725459923948, -0.11204292720358101, -0.13824508674949687, -0.11553701341484757, -0.12357182565789851, -0.1262543543194398, -0.13030040814888902, -0.10887167176779242, -0.11097645016385617, -0.14172126625685716, -0.1585663705792977, -0.16796093474115156, -0.17410725859049317, -0.14727371300285158, -0.15007157976786673, -0.19869594790459422, -0.19421754026830204, -0.2317778040612285, -0.22495988919703427, -0.22568873724281502, -0.24244179076009317, -0.23595248025794222, -0.2375760737614838, -0.2522541135883953, -0.26133689029857, -0.25740441976348855, -0.24764829631047744, -0.25726089665257734, -0.2556930703973453, -0.22458412277796858, -0.21355563574285846, -0.19414554235028622, -0.17785896402881504, -0.16492574670022664, -0.19125985002424487, -0.19843679844618028, -0.22924004568104836, -0.24924579867218713, -0.30523357089225306, -0.30090801412489054, -0.317413145838657, -0.3596364772293541, -0.395420020249488, -0.40853126700896686, -0.4545852846515816, -0.4733717223380799, -0.5129370720636239, -0.4710934750217586, -0.4840074114703075, -0.4790176905283324, -0.44811292050296414, -0.4375260435958677, -0.4119788548063875, -0.4333027328945089, -0.46978989265695964, -0.49693974569340604, -0.49878683150412534, -0.5046181691114332, -0.4903302662274419, -0.512878669510467, -0.5111754233777991, -0.5319055624996762, -0.5101065971495242, -0.5524725508909163, -0.5416137100962302, -0.5313436680031494, -0.46874486531296444, -0.4354141342326437, -0.4472983456172601, -0.447238001800656, -0.45766535337436914, -0.4662519832856838, -0.47746736351845076, -0.4887950332742912, -0.46306680765891683, -0.4657343325646198, -0.5214320373567559, -0.5423025207245319, -0.5297705719545129, -0.5282882996968233, -0.5395275292348747]",True,0.8000,0.3000,0.4000,0.1000,0.2000,0.0100,2.0000,True
16,nogo,Correct Rejection,0,2.0000,"[0.0, 0.0021067189578390213, -0.019346685324067803, -0.007940347084829828, 0.0042317484207944865, 0.008312290500700361, 0.02991525445509937, 0.024367186862149007, -0.003723991890766252, 0.015464556825865717, 0.027009848533052185, -0.0161320038359521, -0.028013173299936536, -0.029460327541013395, -0.010201140649868858, -0.014230299622772943, -0.007436949774923768, -0.04159363828987952, -0.05121285670950546, -0.061904179819018204, -0.03739437363163062, -0.05711407778899977, -0.09909719945925183, -0.054622471929739895, -0.04262283072679542, -0.03415568427476055, -0.07984926031129899, -0.08024933188426853, -0.10389788841185552, -0.09561576871526374, -0.10959926656582654, -0.13100350492399246, -0.13551271376395813, -0.1378320497657163, -0.10695663085391369, -0.13705556863662588, -0.14248631565838876, -0.1111907384658492, -0.11331013361099923, -0.09397460006025501, -0.09896035001928431, -0.1197568549770538, -0.10433981879105371, -0.09159342747604074, -0.09324100159010047, -0.09267713080918198, -0.11468524140304845, -0.13074901515365236, -0.13447524439252037, -0.15038866481259017, -0.15663300718935735, -0.13922489565173435, -0.14505437018882994, -0.14565036125831715, -0.15752466365000117, -0.18271398357492713, -0.17436287726850486, -0.19801234809150375, -0.20447649390629555, -0.226768146601004, -0.2040999733086619, -0.23316343074547097, -0.24105716018377704, -0.24803893975589103, -0.2528235324247342, -0.240308837312318, -0.25700683180541956, -0.27912619438454117, -0.28705853131277936, -0.3126441572151323, -0.27038751814400724, -0.2970543547263512, -0.28908025705332613, -0.30958073597547553, -0.2892640771253981, -0.2867205090159274, -0.2701840716621597, -0.2934199809873056, -0.2937405188479662, -0.29020865048405725, -0.2785059188802885, -0.2733779158525938, -0.3030271062571543, -0.29605063961927836, -0.27902274954154527, -0.2757227611361418, -0.2635839023988564, -0.2739478233547371, -0.2727382948970613, -0.27985425454946816, -0.29863838099448287, -0.31489454189861776, -0.27767216556314894, -0.2731128638767343, -0.22682832260514024, -0.23575495544333672, -0.24934142100607581, -0.24924948486862614, -0.283662533557463, -0.2691889064324873, -0.29279328060011667, -0.2998088302008688, -0.2810526109659755, -0.28971536510825174, -0.27632244847243287, -0.2889383404142842, -0.28706501074276025, -0.30235043858531807, -0.30871654171893015, -0.28612326854831027, -0.2488474295306961, -0.26184678785563487, -0.2443946597672942, -0.27529295622009553, -0.27371943450567654, -0.3099039528183713, -0.30943993099661954, -0.3793795027429142, -0.3934153939579622, -0.4269275832252294, -0.41225005752070537, -0.4264717571737005, -0.40455384757910656, -0.42000140173247635, -0.4225761035654526, -0.4130013390664298, -0.4041289489465458, -0.40621243299271653, -0.38361299159088824, -0.3621532049701772, -0.3654920601099452, -0.3559620188110718, -0.3344357206164047, -0.37744804836094853, -0.3974388626107987, -0.4168428655638847, -0.4168667217998949, -0.39867358740141295, -0.4148263370940222, -0.4044544667287518, -0.36196439198846825, -0.3680816861208245, -0.39983749955413883, -0.4064434114323717, -0.4520499158370173, -0.46154756405696773, -0.45714939438183677, -0.46367615774298243, -0.4554841845206245, -0.46344774873182043, -0.47456728654105435, -0.5131404060477581, -0.4948188093821134, -0.4646624429820251, -0.46560895239980854, -0.48671206123507593, -0.5117527112450085, -0.5415143991122209, -0.540443569907268, -0.5478011721533903, -0.5327966216797937, -0.556857977033574, -0.5684761876398657, -0.5914048260685639, -0.5859368028736316, -0.5685928189384191, -0.5363901050949259, -0.5232156110550256, -0.5049201851280638, -0.5079190035784336, -0.49657461821918647, -0.5258648221089697, -0.53991826489203, -0.5533774639402067, -0.5484186149559058, -0.5608122458597551, -0.5782800873138246, -0.6041214353349966, -0.6016953770170432, -0.5756890854342352, -0.5660762885991679, -0.5548184808899455, -0.5532217543584625, -0.5773986085097921, -0.5919060457900208, -0.6007446933927646, -0.6177029495529873, -0.5878708816749221, -0.6122005412832926, -0.5992772669799029, -0.6271794677046492]",True,0.8000,0.3000,0.4000,0.1000,0.2000,0.0100,2.0000,True
17,go,Hit,1,0.3400,"[0.0, -0.024903567577279573, -0.010266761788232964, -0.010070686720170662, -0.0036531919015324044, -0.01085324242438185, -0.020547882759406624, 0.014690209791572477, 0.03759656717268105, 0.01309096061716377, -0.026335148693868243, 0.0003316855806808315, 0.009050590957070555, 0.02504026639927639, 0.003207673213608396, 0.026844216708582436, 0.06900849892687214, 0.07680397454723407, 0.0949511988112001, 0.09468414938823892, 0.0929526202870276, 0.08715467422943626, 0.07983157512306271, 0.0797932293263455, 0.11993684118464228]",False,0.8000,0.3000,0.4000,0.1000,0.2000,0.0100,2.0000,True
18,go,Hit,1,0.1900,"[0.0, 0.017292513904307076, 0.03645029326313243, 0.07144383740727633, 0.06244766510350351, 0.06736504750880744, 0.04268263989653012, 0.0635626131104618, 0.08044436871358125, 0.1126165793760699]",False,0.8000,0.3000,0.4000,0.1000,0.2000,0.0100,2.0000,True
19,go,Hit,1,0.2600,"[0.0, 0.0014717954213236415, 0.01921095692049294, 0.010087086961163848, 0.0008708053205295288, 0.00211932662072401, 0.017106088243600846, 0.04971546814610329, 0.06020959563430611, 0.055034383485591164, 0.048084962622324284, 0.03452719722735105, 0.0440343622846759, 0.06470756270093161, 0.076217000275775, 0.085446243940604, 0.12346498436243619]",False,0.8000,0.3000,0.4000,0.1000,0.2000,0.0100,2.0000,True
20,go,Hit,1,0.2900,"[0.0, 0.008197498523496136, 0.0034227826672170794, 0.01971721774517244, 0.00034497435728451584, -0.0011592242745134228, 0.0316277588253914, 0.0374948030177627, 0.0247788334832759, 0.03693087323971109, 0.027174481076136767, 0.021218571579765283, 0.03347084444490636, 0.061147554117741684, 0.059077320123077134, 0.0681470791872609, 0.07315704620576906, 0.08635612338760519, 0.09554412859573012, 0.10440750825083969]",False,0.8000,0.3000,0.4000,0.1000,0.2000,0.0100,2.0000,True
21,nogo,Correct Rejection,0,2.0000,"[0.0, -0.020560439439841875, -0.013645953872649694, 0.0065224317277626925, 0.01939194765090624, 0.037228834341422934, 0.05688235759936984, 0.06933491007983239, 0.05150432455104517, 0.024767331475138335, 0.02354112868794076, 0.025797046109544225, 0.026661432485246366, 0.0366857112021569, 0.03623005245202358, 0.010230790259604976, -0.004164548717203519, -0.05931991346053636, -0.06463335250724342, -0.08293349915587843, -0.08627414476966463, -0.11563312877761181, -0.13154676354799963, -0.13266823079471557, -0.12985192941977608, -0.11334894612321156, -0.1142297512733225, -0.10992585929368226, -0.11767816383998782, -0.12927243782252748, -0.14528291553151207, -0.155143797443681, -0.15388038724841954, -0.14581170531800722, -0.1632003481396623, -0.14796994621291631, -0.1612206616747968, -0.16309065016569682, -0.12872573262815026, -0.14094874856916392, -0.1309959833040413, -0.1446200910540011, -0.1377006515835771, -0.1448791516375554, -0.11131981444850883, -0.11533102525747221, -0.12516622246066592, -0.1480171692006192, -0.13185339369542498, -0.16768620605854304, -0.20036577124733834, -0.2291989037738396, -0.27956196487510954, -0.27248031335446565, -0.286278611805183, -0.31195958280391906, -0.3031625300412565, -0.31463497990920464, -0.3082991328535924, -0.28495191373220147, -0.3183984935276313, -0.31602499559400105, -0.31594866543156924, -0.32471338171769615, -0.3437149452779855, -0.36967675887114637, -0.3969763231617153, -0.40079228740907796, -0.37990333320502134, -0.3869130745775877, -0.37081531502659265, -0.35891736263342916, -0.3613145959885892, -0.3441891665138192, -0.29969705537269137, -0.3334597227445467, -0.3660973798112543, -0.3781268932800905, -0.41341459298880046, -0.400602360842986, -0.38420500003207103, -0.3876727284320783, -0.3454282437021898, -0.36740234122484033, -0.38083506626416974, -0.4109007746849942, -0.4321993563731593, -0.4246439783233687, -0.4215780772947257, -0.44761919985358023, -0.4388866725119858, -0.4498342742835424, -0.43894861403995217, -0.4362502889742395, -0.4814410373408443, -0.46009742736912335, -0.4868962636092266, -0.5160520527236655, -0.5282255937172252, -0.5365673176437529, -0.5364549004309062, -0.5423943006553186, -0.523517052826284, -0.5472985169311774, -0.5624719982319213, -0.5502823730744338, -0.5598731999038666, -0.544620678783403, -0.5266014664241361, -0.5470835956079817, -0.5036805520769967, -0.49399044070421183, -0.48381107023565206, -0.4993816706193798, -0.4851620118331648, -0.47820475731438555, -0.49162271113929507, -0.48453552599059946, -0.5218345149182247, -0.5317371932931515, -0.5375782442434549, -0.5513094226257403, -0.5291956340219706, -0.5072882491288356, -0.5258491633174335, -0.5540974354230137, -0.5567600071422971, -0.5594139747317749, -0.5660940433312261, -0.5767250491248856, -0.5700184744661053, -0.5370091821883585, -0.5427324796796726, -0.5423467759021434, -0.5356331258885618, -0.5207567241133989, -0.5390804423660871, -0.5195583822158325, -0.49029802866175626, -0.48753805836355923, -0.48437198641711865, -0.5080721480129542, -0.5415489531235063, -0.5581485504663126, -0.5288978249765703, -0.5207433149422401, -0.5586082445454086, -0.5429702991465544, -0.5842066480097069, -0.5785594305179673, -0.5938997968149071, -0.6020671229194385, -0.5765203029794886, -0.6092720517215717, -0.6123725860364653, -0.6569081231877892, -0.6646468209546618, -0.6583670351981902, -0.6390156122786127, -0.6430820791724534, -0.6402830973908276, -0.6136598522249299, -0.6286509733220209, -0.6270269806077983, -0.6084598951016291, -0.6272289426899845, -0.6395965740366208, -0.6369220502697336, -0.6166820470448491, -0.6486662477196945, -0.6104596319837982, -0.6071713648399929, -0.592998725088011, -0.5852082313197365, -0.6001819636200219, -0.592155094116611, -0.5924530965344171, -0.5890515987516463, -0.5722409672784552, -0.5759476626478319, -0.5479720314830848, -0.5492080214760368, -0.534121928811527, -0.5279124438965073, -0.5066941431080099, -0.5693159798276156, -0.5684858142138833, -0.569458939183504, -0.5715259693274959, -0.5685717576363771, -0.5862641857602555]",True,0.8000,0.3000,0.4000,0.1000,0.2000,0.0100,2.0000,True
22,go,Hit,1,0.2100,"[0.0, -0.0022549359426866037, -0.029914230315915176, -0.03010537428708519, -0.04021432877055181, -0.03651249571983258, 0.004896826444233886, 0.020981577508205413, 0.012980017566035368, 0.04518410894094049, 0.09907697471919973, 0.11963273561342329]",False,0.8000,0.3000,0.4000,0.1000,0.2000,0.0100,2.0000,True
23,nogo,False Alarm,1,1.5100,"[0.0, -0.008133078444865771, -0.041542648737662564, -0.04135293114975666, -0.027030631298855162, -0.019948048701286043, -0.022494763899380734, -0.07676403337341615, -0.09653542316668079, -0.07847466215354934, -0.08570382437386372, -0.1093425728188785, -0.1099893332864821, -0.13301317760323028, -0.14448635758149703, -0.15281653187447264, -0.16049669882036569, -0.11138838221191241, -0.09868234920628538, -0.09873578769483063, -0.11135612778365092, -0.1716193604939334, -0.16552626516081287, -0.17721837893597966, -0.18227822443406716, -0.18682374428824763, -0.18514882481098138, -0.1825542694021855, -0.18379876749506888, -0.17219957211039089, -0.1677787099373217, -0.16966821822488468, -0.1430637224431784, -0.13077053094016244, -0.13179260360935124, -0.135440044525213, -0.14720930909379054, -0.1455784583995726, -0.16779016364229965, -0.16711186137131773, -0.1644167090363255, -0.1387696200311298, -0.1511843552300806, -0.1693673390782008, -0.2092751284289212, -0.20196863015507185, -0.193785450835803, -0.18673048560548638, -0.18266421647933148, -0.20110420398557646, -0.18168153989658137, -0.15596714186860305, -0.1580611332998314, -0.171313531659761, -0.20793714969367796, -0.22600203212167821, -0.1987491194059137, -0.195528811393828, -0.20459817060069524, -0.1618575282103137, -0.16697791991574581, -0.1833186497093433, -0.16233029574351826, -0.16790406382256332, -0.17465413517802217, -0.14088482604039015, -0.1365836383131387, -0.16392568593794543, -0.1538419856700887, -0.14901617561100192, -0.180714588369514, -0.15856599828043325, -0.15712392334479386, -0.14789351588895797, -0.14086495967664475, -0.17917391933474688, -0.1550532130186853, -0.15001325538319066, -0.15422602361097654, -0.1377172742692822, -0.13636789715403605, -0.11391341078898654, -0.09099990320800637, -0.08845016704705724, -0.09730388735400283, -0.09373748733779923, -0.13129056810302173, -0.15076713763061003, -0.13863366386159937, -0.13903980696010837, -0.13517073876233252, -0.13153972274669584, -0.14457000962920788, -0.1316205412974355, -0.12618961380852795, -0.13646422451521772, -0.1519195549556122, -0.1438754360508872, -0.11025338576266218, -0.10531977150969728, -0.14536175079285524, -0.14464704229343114, -0.13532228497396898, -0.15343176176619386, -0.159548994947247, -0.1632197526964864, -0.19091047348912452, -0.17956011162509708, -0.1633846054413068, -0.1229814164554933, -0.09988495799085087, -0.11335927214675047, -0.12877137860309737, -0.14563323627855343, -0.1446443880611546, -0.14502930882796322, -0.13133310011291127, -0.12323340821009829, -0.08811909844685707, -0.06210230783574944, -0.04558430308413372, -0.02781084810644116, -0.03918348784966735, -0.043549649802116355, -0.03996115062870026, -0.029074024662546237, -0.0561894972077317, -0.062098719173546355, -0.04009871838654161, -0.07530289157839168, -0.05054790797653001, -0.03121213529162842, -0.003294865190996265, 0.0005488803144177478, 0.023540617225219093, 0.01690863065751099, 0.02638667639022951, 0.04598592968883676, 0.05486706005060615, 0.052186335499516845, 0.08535301027030005, 0.1029881174050807]",False,0.8000,0.3000,0.4000,0.1000,0.2000,0.0100,2.0000,True
24,go,Hit,1,0.1500,"[0.0, 0.00762832205595603, 0.05349611204209199, 0.07648785301812032, 0.07457056145485767, 0.10373106689131008]",False,0.8000,0.3000,0.4000,0.1000,0.2000,0.0100,2.0000,True
25,go,Hit,1,0.2700,"[0.0, 0.003911530123271771, 0.04767113994619567, 0.018920475822927774, -0.014820217566298505, 0.0024241864625172867, 0.0159555768200108, 0.010426622756709927, -0.016929521353609103, -0.03366579043154323, 0.027320555432191848, 0.034926303088475975, 0.0507207471573103, 0.057908121828294974, 0.023103601367321994, 0.051149273106100165, 0.0794414931022901, 0.10088952089377301]",False,0.8000,0.3000,0.4000,0.1000,0.2000,0.0100,2.0000,True
26,nogo,False Alarm,1,0.6700,"[0.0, 0.02345222909107431, 0.05550432029064306, 0.05998254494225286, 0.03701034589416248, 0.03835873509975087, 0.05441899156459824, 0.039513924859533256, -0.0022721288067789266, 0.019532809115554748, 0.0236740993996378, 0.007103537819906362, 0.002292790744343573, -0.0022997226032422493, -0.03718535789666923, -0.016915489752325593, -0.03650571428707783, 0.0037150075328726134, 0.009274326140658045, -0.02916503783538233, -0.0019637862053279408, 0.03423748386883273, 0.041366170469012274, 0.04622388565773275, 0.06143953642539299, 0.06670012903935169, 0.0355412423042378, 0.02089474418464705, 0.00454575273037322, 0.039622031469816806, 0.03107172908810619, 0.014287502932926764, 0.006234038655273076, 0.03147613533370665, 0.045325060000146807, 0.03783415203255318, -0.006317594111652516, -0.006515876838376852, 0.014872372105850986, -0.008611134190985158, -0.029426123803791594, -0.017274057456640554, -0.006807550285399894, -0.003794608863610973, 0.010830083521588405, 0.05195851114074551, 0.06927787875761218, 0.04453312118080466, 0.03892680257509868, 0.04331964677018396, 0.0484878376955747, 0.058671487405963355, 0.07570317083666048, 0.060750160195217145, 0.061974928302100094, 0.06689050608561578, 0.0945830113826338, 0.10643618000359081]",False,0.8000,0.3000,0.4000,0.1000,0.2000,0.0100,2.0000,True
27,go,Hit,1,0.2700,"[0.0, -0.01024441622244288, 0.009351607558328926, 0.011906217262652077, 0.011462921879790089, 0.01944329635062951, -0.003505324803132724, 0.05087801402623698, 0.04968430316723273, 0.026336439058296794, 0.007845510852979253, -0.007584734968583275, -0.014283574452997997, 0.011061729972984224, 0.04481456983609136, 0.05635059869189376, 0.09909046831559912, 0.10505241996914924]",False,0.8000,0.3000,0.4000,0.1000,0.2000,0.0100,2.0000,True
28,nogo,Correct Rejection,0,2.0000,"[0.0, -0.012674291120882853, 0.010598117727469807, 0.03091651594862498, 0.055683726004171, 0.0707200585733754, 0.08161797750355672, 0.08167066609718175, 0.07189485532376176, 0.0665948231814256, 0.07546466219239784, 0.05778566053363972, 0.03986393982971406, 0.05657945157344951, 0.05522804650818681, 0.04499589191518008, 0.0432964075730184, -0.003756605333490988, -0.023354129932622467, -0.04238928223751062, -0.042678396394011796, -0.029738470166760515, -0.06690332471144211, -0.06436005683060463, -0.0764945072985099, -0.0967388773709311, -0.14966725965426522, -0.18045642648862975, -0.18510064440845944, -0.2031852650237115, -0.23027579204723964, -0.2310644845020302, -0.22619403909459343, -0.2580286671697257, -0.25147610697724126, -0.22627804929703577, -0.21514274032160063, -0.241156511328421, -0.2217652139033228, -0.23536007719757532, -0.2540503567116471, -0.2625615263809142, -0.24443776952249108, -0.2454697800939995, -0.26485722470361805, -0.26876407541093505, -0.23083729193053834, -0.21358308613849056, -0.18792351524347764, -0.1897156406198351, -0.1938568714497266, -0.24626814552769183, -0.23596155621038398, -0.2201399378273177, -0.2504139256021207, -0.2602043764118713, -0.2622168455459959, -0.26667885685743375, -0.21901526011678626, -0.218335599861946, -0.18544299220366883, -0.17402954533881287, -0.1394430730146785, -0.1303233567144397, -0.17235271014872736, -0.16130680675859915, -0.160096055704364, -0.13474791260448235, -0.17212550535050233, -0.15700795036524856, -0.1544104612797785, -0.1483555689818972, -0.19975873395474256, -0.20267820715870224, -0.20420774303145509, -0.19109884463629984, -0.19774346897619371, -0.18899710148608512, -0.15984139292667474, -0.13631324662376332, -0.12900535500715704, -0.14637638194314695, -0.14899821024477397, -0.18112334652007028, -0.18571689411656014, -0.14789229998602593, -0.15228242764839656, -0.14060844859758453, -0.14720365947811406, -0.1811256557420397, -0.18690609185779528, -0.21211484107267828, -0.23047437890263114, -0.2585167711651998, -0.26622902794462117, -0.28852306699562774, -0.2789776231781982, -0.27665143019470956, -0.2626733106100286, -0.2625132684829149, -0.2213172950277401, -0.20187845226934434, -0.1940983101650077, -0.21875619921191067, -0.26100332448676455, -0.29213074296265423, -0.2713506520300444, -0.2735286736195663, -0.2688757983030731, -0.27646192751151755, -0.25896814502338206, -0.25076367789182685, -0.27585031663535414, -0.2588134075925247, -0.2646507622590503, -0.2409534950004566, -0.19522753568886242, -0.18842339940867855, -0.18643107567549277, -0.19170796364178053, -0.20653621622349988, -0.19220866728317945, -0.19823112927465691, -0.21088786169803944, -0.162212296955157, -0.15237619071905795, -0.15355545760891098, -0.17809764247864293, -0.18663399274833917, -0.19693587940229573, -0.2052369739770686, -0.1670466901276471, -0.14301990093498756, -0.146134264508617, -0.13431806696677817, -0.1244073085203235, -0.11400217896884733, -0.12640476407335846, -0.15368996299848225, -0.1689183862691379, -0.1722911106205215, -0.2104773914833506, -0.19526940683950308, -0.2306893989695981, -0.2641307418152994, -0.3077733110271287, -0.29366598623455403, -0.28367623047036306, -0.2640018766766477, -0.2570213945179626, -0.24782655937710885, -0.2503285892019203, -0.2697785989611209, -0.2826253995746147, -0.301996348585744, -0.3009188293777883, -0.31454337284292244, -0.31454510746584324, -0.3220143023401435, -0.3326618136060892, -0.35824644297424635, -0.3692838290908841, -0.4146878255261178, -0.38665949121554033, -0.41202473353652147, -0.3815589396355956, -0.40317882609562133, -0.4059105462181863, -0.42493103440639113, -0.41965287614252306, -0.40227911105008635, -0.41527693983049213, -0.3998563697330618, -0.40152252016319895, -0.41115905627587684, -0.3959738134060565, -0.41774517527682437, -0.39498658160511885, -0.4025860686445646, -0.374877757265496, -0.369071880753174, -0.37781441804253835, -0.3919417468836155, -0.40487531777129515, -0.37320842573698526, -0.40203067450885327, -0.4009309949097933, -0.43342004554225094, -0.4405527560944427, -0.4397929304125338, -0.45314463510710656]",True,0.8000,0.3000,0.4000,0.1000,0.2000,0.0100,2.0000,True
29,go,Hit,1,0.3900,"[0.0, -0.018779130907084392, 0.024113127744826296, 0.012411668345318528, 0.03265913342483137, 0.04135266949484853, 0.031830234771876034, 0.05834233328373366, 0.07701603520562769, 0.07878737346495102, 0.06861410683663152, 0.07899365079089002, 0.08886010420445914, 0.06337160423012889, 0.049888243037799776, 0.01834109294456271, -0.018590430508369907, 0.00399523031475469, 0.037808431729089494, 0.022976848621728607, 0.07528841707238308, 0.09386958326377293, 0.05657899740331022, 0.05669978346193188, 0.0773081936592402, 0.09147350454585905, 0.08725268126179989, 0.06918516022964612, 0.08991042895171966, 0.10106827579825568]",False,0.8000,0.3000,0.4000,0.1000,0.2000,0.0100,2.0000,True
30,go,Hit,1,0.1400,"[0.0, 0.0056484131824635075, 0.03989368307229595, 0.07966016103082178, 0.10742762459696298]",False,0.8000,0.3000,0.4000,0.1000,0.2000,0.0100,2.0000,True
31,go,Hit,1,0.2000,"[0.0, 0.049961629216840484, 0.06063389075870148, 0.05433849098594907, 0.08114771195578324, 0.07773978582578306, 0.0796613251546528, 0.09099279564025405, 0.09971157189171515, 0.0965226621426032, 0.10933082584675505]",False,0.8000,0.3000,0.4000,0.1000,0.2000,0.0100,2.0000,True
32,nogo,Correct Rejection,0,2.0000,"[0.0, 0.01913612338656446, 0.004650099905848609, 0.009597616024366748, -0.027579177608386858, -0.019344395950856477, -0.01727491630742046, -0.022021789771587624, -0.0011792940298404192, -0.015308678051128809, -0.0433395604420157, -0.04939967104677065, -0.050006333395737575, -0.05933384502097741, -0.09290825811464633, -0.1052175767576371, -0.12756120366147664, -0.11761661478865419, -0.14046248909938716, -0.13298655242317506, -0.15750396728964594, -0.14796401143405166, -0.13367692466189043, -0.16981610269139485, -0.17564924274713378, -0.20406697144261984, -0.1986161017342014, -0.21536807508345676, -0.21246132892545413, -0.24598072624024425, -0.23667340181626043, -0.1999944022047679, -0.18679190499748716, -0.18822596543888626, -0.18357849240058727, -0.16775082640720299, -0.16712927528206442, -0.1601192571267012, -0.17631367297627765, -0.18734776172871845, -0.19570654168287752, -0.20442112103235077, -0.1707137768496146, -0.16377417538430328, -0.15791684864357844, -0.14325786957617392, -0.1640307726068567, -0.15462883901411825, -0.18551362776845506, -0.21012449132704622, -0.19431014410566702, -0.2106552751634912, -0.17714482806342297, -0.16768067177753126, -0.1610023642590789, -0.1895069103562505, -0.17850258885936157, -0.16628335262556942, -0.17534265541170174, -0.17091484900861606, -0.15338261688530613, -0.1729960500573821, -0.16301537197268995, -0.16076578570090025, -0.14067847104202683, -0.12231761473150353, -0.13228666109785772, -0.12381389427879923, -0.12547138638050895, -0.10903359622351522, -0.10373791138003664, -0.1060294022006272, -0.09793455827597794, -0.10540298203407865, -0.11100693612862152, -0.1498251266158711, -0.17186978487348212, -0.17099716041614102, -0.16118166837991577, -0.15018629700000433, -0.17750630321198582, -0.17401644093842347, -0.1618923878087722, -0.16082831372402445, -0.15481248644774936, -0.1261147912327919, -0.10233025589749623, -0.08985810787224033, -0.08763137119145238, -0.09219536403124728, -0.09676953101420967, -0.09532710903574844, -0.07404137956737314, -0.08975280521206604, -0.05835319493479253, -0.07039161258244629, -0.059831333884262525, -0.05354225309079444, -0.04956549563206424, -0.08144875500341554, -0.07905022033863801, -0.07926316257514307, -0.11318138521635604, -0.10316406580163176, -0.0881298769241622, -0.07653735529037232, -0.08826694388384385, -0.09318253478746427, -0.07162950380258358, -0.05563051706309309, -0.0453156031200013, -0.04685170626040312, -0.031001571069777044, -0.04059193954915693, -0.01826430438428976, -0.03808249555384503, -0.05463901511593993, -0.07427782266047137, -0.07973618043989794, -0.09289621637383674, -0.12171687580637675, -0.11122675367739311, -0.10699877662006196, -0.08255156493314492, -0.10864580228788465, -0.12132347244648115, -0.12015536730704174, -0.1282688392928006, -0.12477823108657017, -0.1305282450461756, -0.10844177019514757, -0.0710501272075555, -0.08127853027391181, -0.104361543101675, -0.10251077311139464, -0.1099204836219253, -0.10404965175723145, -0.06278240257640655, -0.07885269229076179, -0.08642549626327833, -0.10298286836615818, -0.10077209557205957, -0.11289417303730541, -0.09317322897706094, -0.11899438590122542, -0.16072179748032603, -0.16494778901425922, -0.14833967424110414, -0.1395191928605206, -0.13976053747300443, -0.16070246910573352, -0.20808613763010284, -0.20075025242627642, -0.16165369459388076, -0.1935349742120576, -0.22396824769165372, -0.224946718584449, -0.208223141492743, -0.21858654666782068, -0.1982427993517319, -0.20187175943166272, -0.20001270256002066, -0.22590514378186322, -0.20258718766987566, -0.21288749419688768, -0.2058504801608669, -0.20314013480190743, -0.2357007600925638, -0.22796423961317758, -0.20688226042914307, -0.19803341319555134, -0.19009099686379186, -0.22536929425263155, -0.2014176458877733, -0.19479381828501935, -0.1620854924387559, -0.17505615177898418, -0.15654353352207173, -0.15621266969149658, -0.1947229692008043, -0.20673027773530905, -0.2012169904269376, -0.18225423924075043, -0.18999997753243447, -0.17759106276649453, -0.19354391932042972, -0.16245545754887725, -0.17684326701900102, -0.15183289834039268, -0.1535744309525386, -0.17906693489426156]",True,0.8000,0.3000,0.4000,0.1000,0.2000,0.0100,2.0000,True
33,nogo,False Alarm,1,0.3700,"[0.0, -0.021249650682861162, -0.042688624419338, -0.04538973137218258, -0.028130151338473394, -0.013389808772031282, 0.017751840290155793, 0.027316075998773892, 0.056413168975227135, 0.04504923506491949, 0.0673165493203088, 0.08871296601627154, 0.0998735500753696, 0.06391672159046544, 0.0748323841205566, 0.07611577189086266, 0.06684812315384275, 0.05512352677123221, 0.05536974305758209, 0.04911990369694885, 0.0515888263974108, 0.0560668497662993, 0.058982447074793685, 0.05739189474487041, 0.06528214245437804, 0.06440169503583704, 0.08351162925802232, 0.10277756553369133]",False,0.8000,0.3000,0.4000,0.1000,0.2000,0.0100,2.0000,True
34,go,Hit,1,0.1600,"[0.0, 0.028245616787890435, 0.049315270965633165, 0.06024528368715404, 0.07820235980029552, 0.08680059100599441, 0.12536412404167546]",False,0.8000,0.3000,0.4000,0.1000,0.2000,0.0100,2.0000,True
35,go,Hit,1,0.1600,"[0.0, -0.0255874732811104, -0.006894288166148937, 0.034335061113458035, 0.06606337549244251, 0.09409084547192453, 0.10650741000300794]",False,0.8000,0.3000,0.4000,0.1000,0.2000,0.0100,2.0000,True
36,nogo,Correct Rejection,0,2.0000,"[0.0, -0.005865523071365717, 0.010149577760912718, 0.011667642012809048, 0.012735846051033103, 0.014253621039762871, 5.687205683217733e-06, 0.008178448368445949, 0.000435489795933555, 0.012902639782329403, 0.009162870144740794, -0.002376569444287739, -0.01743928656745851, -0.050687483195000126, -0.03138156748328514, -0.05395010733902194, -0.03746510210850504, -0.021416071826709657, -0.013333098225983778, -0.006505220492818106, -0.031164290467919804, -0.050275988016075204, -0.021996470393512057, -0.006097918122650925, -0.011025737904143403, -0.0245077398738262, -0.03105003374546825, -0.011163446492806914, -0.027437260203973867, -0.027002325943962367, -0.05360377186735922, -0.07937608627837912, -0.07414159625473454, -0.049189101527794044, -0.08704500096334335, -0.05198130999944049, -0.0689218626277546, -0.08155465733036196, -0.08566070896559574, -0.111516214560826, -0.11281510026507109, -0.15598352059435053, -0.14993457284887574, -0.17524647194392873, -0.14381710789851468, -0.14437785673241801, -0.1541891200586672, -0.14607122196020556, -0.1588998847989452, -0.1419842937228036, -0.174063688926039, -0.1673452294260093, -0.21042231805039288, -0.18929169244097416, -0.1525954038462758, -0.10442192574551729, -0.1054836595540034, -0.1212560025881196, -0.12025464353987492, -0.10016629751123818, -0.08075326811130629, -0.09994904610834299, -0.09505918987381642, -0.06576899113045484, -0.07253266804961177, -0.07263823672166794, -0.08258010675959651, -0.07611726927152478, -0.06945582265521137, -0.03984083687949762, -0.08144510797746021, -0.0476051018808321, -0.047412891648549366, -0.05772371332798923, -0.042714281035541965, -0.038871890121188836, 0.0015383694678615459, 0.004097712155257913, -0.014789179018105291, -0.0242360376552487, 0.02447716164247579, 0.029692894885532617, -0.006412068146075749, 0.009612658147220534, -0.007476667300728698, -0.022685907487602304, -0.023544008812079204, 0.01890030832267176, -0.023519471047790227, -0.02952697323559191, -0.03206094042172756, -0.029045195926879108, 0.011370830122699755, -9.638801439577904e-05, -0.0048758011969153945, -0.0731446137854898, -0.0756250527066504, -0.10887101266280638, -0.13945725723818647, -0.132253567165889, -0.11801279424824586, -0.11823898810777272, -0.07007871564353754, -0.06357318616378681, -0.06260681101352483, -0.08669543844577472, -0.06343461866701178, -0.03971774472861113, -0.051940967271491445, -0.04001000218596161, -0.07279383811282626, -0.07608295668567255, -0.09246997992377033, -0.0474692462756388, 0.006049122377354187, -0.02717962765767245, -0.052263821488842656, -0.06784987773139331, -0.04590682453639727, -0.042081727939581155, -0.055695579174102866, -0.03654388149521083, -0.0775247195124862, -0.08293185158184092, -0.09372364423929118, -0.08973845955664933, -0.12187935906916306, -0.1485916864620196, -0.12900517118885182, -0.11453072970317879, -0.11670742449995684, -0.12415176683025261, -0.08526136381324971, -0.07361961410448777, -0.08167573976715188, -0.07851534040122699, -0.0636035708421778, -0.057736579505856804, -0.05622329454185052, -0.06358568521945186, -0.04769274852395268, -0.03525268549319875, -0.07282485548510001, -0.08061494718140177, -0.1046686598270565, -0.10142263632360143, -0.0707044125266017, -0.10880875671812795, -0.0992377191929079, -0.11670066183384263, -0.11849885900030499, -0.14763499247826445, -0.13566914986197953, -0.11504843359903147, -0.14219222019065858, -0.13047105057461134, -0.12267834226888431, -0.13289965163459302, -0.16000784346370325, -0.13343289545075263, -0.11188264798560274, -0.11094697318376899, -0.10752316826373755, -0.11205464413158195, -0.1353975224698982, -0.13548811315180928, -0.12465733165565945, -0.13151736031060268, -0.12357382715924677, -0.07362462217623411, -0.10580150409774942, -0.1043162363662266, -0.12813752892895958, -0.14728991109811168, -0.1419069233600669, -0.16458680118756006, -0.16653116520726047, -0.1725806716139822, -0.17523414803769582, -0.1865717744139861, -0.18196649025241154, -0.17944689849534243, -0.2082387013646969, -0.2236473977222459, -0.20294663125820522, -0.2154377737139199, -0.18024948942454813, -0.15265377522981902, -0.13359011791425826, -0.15313630297977374, -0.15774517786204562]",True,0.8000,0.3000,0.4000,0.1000,0.2000,0.0100,2.0000,True
37,go,Hit,1,0.2800,"[0.0, 0.035596520732310746, 0.0627563106993395, 0.05263851694115328, 0.042422356138569664, 0.04536081172251977, 0.06531329581585194, 0.08620251606199644, 0.06624672033562139, 0.06557168938138315, 0.05085308789633941, 0.052683454540400146, 0.04367393077670273, 0.060905644684821486, 0.053643294169640116, 0.05783524334457108, 0.07098331573975776, 0.0932119664600318, 0.10675046700917286]",False,0.8000,0.3000,0.4000,0.1000,0.2000,0.0100,2.0000,True
38,nogo,False Alarm,1,1.7800,"[0.0, 0.02245173816022048, -0.0035489036038604677, 0.009989755887297756, -0.009817391716028544, -0.021069760000895478, -0.04331243927319753, -0.0683650943433642, -0.04133563468324997, -0.06743105034654351, -0.06089640452871668, -0.08523432792134225, -0.08031249128907379, -0.09737141185030106, -0.0789153446744883, -0.08664955180187633, -0.06478541532298798, -0.08433832603127958, -0.0843875174577125, -0.041917593703467176, -0.042086354269593465, -0.03757332220097995, -0.04904493904955318, -0.09168915659992097, -0.08008317514749509, -0.11356020566310218, -0.10690531400524682, -0.15147555157108922, -0.17009121424037008, -0.18862522900355136, -0.17656475307044564, -0.14471435404040295, -0.14522871194370207, -0.1583323296006341, -0.16109582121237917, -0.17962531224553627, -0.1980308294599103, -0.19846207306469632, -0.2259426244228814, -0.2410438784026771, -0.24648502429172525, -0.2294181741592165, -0.2130610828497119, -0.24378501711708228, -0.25565805284691556, -0.25081363651720756, -0.2562446545818955, -0.25504226032445554, -0.25844079961747285, -0.21378876200594096, -0.1955016811030682, -0.17921819553630913, -0.14634918679660405, -0.14799245998610355, -0.15174396915781482, -0.1721494473444993, -0.17360227134202383, -0.1736420877206508, -0.18840510413655637, -0.1799017944293398, -0.17630677132028363, -0.14840875080748958, -0.1555194243724461, -0.12742129382669165, -0.11865609708223605, -0.148307685309253, -0.11043541361186547, -0.13104458023740959, -0.10506599687310866, -0.1073480555767913, -0.08894062940411739, -0.09736352552203809, -0.11542497516670082, -0.12757500970235958, -0.12370384820439181, -0.10283752344113878, -0.1134948151981352, -0.15620382189512438, -0.16381969323578155, -0.1735425898592056, -0.16181310499897406, -0.14476084363349462, -0.1590594468458823, -0.1507144633105031, -0.14355531930471976, -0.17714545964152398, -0.1726816659538993, -0.16380938820603091, -0.1633617930663779, -0.14430741211598833, -0.15647544030629357, -0.1633732955256906, -0.15437660977555048, -0.14744532196657603, -0.14364183834284527, -0.1269192429167143, -0.14150298119266852, -0.17395291971153126, -0.15476683407556632, -0.1414830819668529, -0.13150608961311963, -0.12769619643387126, -0.10118005627423174, -0.10943237456095775, -0.1304599916386082, -0.1847942439839653, -0.1668903998397162, -0.16112403024928518, -0.1751514381560964, -0.16394966079510007, -0.16076040758813553, -0.1591905788662532, -0.14705826002887834, -0.16270195827803086, -0.19710719795047338, -0.14781654572914427, -0.12894601758693874, -0.15395577236277874, -0.13206108277160486, -0.12388378309645788, -0.1257227314413365, -0.11730381003496752, -0.10486503510142028, -0.11850927896688151, -0.16476337990071865, -0.18470224347992747, -0.21944611241080975, -0.20821920541133135, -0.2090890578249025, -0.17433692534847312, -0.15262605825861356, -0.14999434970542042, -0.16597621871917184, -0.15918617314916175, -0.15833028013578127, -0.15571307775040727, -0.1087734760217976, -0.13734952227071778, -0.11637486590250518, -0.10592015760442963, -0.10883179726770716, -0.11487441198328638, -0.06876508938559994, -0.06527567034062003, -0.07772199098153622, -0.08539459923491172, -0.07905274165439242, -0.052849861254329375, -0.04918032301358847, -0.07176243232147886, -0.03559235357646488, -0.03278961393053963, 0.004486951560076162, -0.02721471556171734, -0.004002874504778396, 0.009834804304510471, 0.017414746529979805, 0.016275598575354953, 0.033054965116836074, 0.03285895710788015, 0.034033590105240624, 0.012432697060962214, 0.02592035039960058, 0.00874476798571593, 0.012013998857362557, 0.05432404252210919, 0.09766365334352764, 0.09032030913257373, 0.1284506639459602]",False,0.8000,0.3000,0.4000,0.1000,0.2000,0.0100,2.0000,True
39,nogo,False Alarm,1,0.2100,"[0.0, 0.030484321472727248, 0.009081089532172772, 0.005831631229928108, -0.017685185974447952, -0.023144000398648657, 0.0040786220288525875, 0.030547578913333748, 0.04578062179847657, 0.07019185091274345, 0.09930605314571093, 0.1321539406801961]",False,0.8000,0.3000,0.4000,0.1000,0.2000,0.0100,2.0000,True
40,go,Hit,1,0.2800,"[0.0, 0.008824919284715602, -0.035099029594104436, -0.059643298324649985, -0.07447157448656257, -0.059072163382622694, -0.05952990622840907, -0.04051252891949319, -0.039844815905827884, -0.021422141135543207, -0.005163144104696784, -0.01777833333411644, -0.0047589526275426865, 0.030694074007206695, 0.023850398397515734, 0.052063913934499, 0.08698340064324178, 0.09815902864385595, 0.11069487439269049]",False,0.8000,0.3000,0.4000,0.1000,0.2000,0.0100,2.0000,True
41,go,Hit,1,0.2000,"[0.0, 0.01824932116996073, 0.0343925834056665, 0.018250459495733194, 0.017857597619129847, 0.007890090494114765, 0.029608238000720762, 0.02061327535692776, 0.045116768035805194, 0.08494567185967038, 0.11250351240060823]",False,0.8000,0.3000,0.4000,0.1000,0.2000,0.0100,2.0000,True
42,nogo,Correct Rejection,0,2.0000,"[0.0, 0.002639585491983087, -0.013740396352128072, -0.04153965015703376, -0.03520153162069149, -0.027141963197405396, -0.052884672447746486, -0.05679286167384731, -0.060483302801111916, -0.055727130380738586, -0.05836951013070165, -0.03872001128220162, -0.059988234074280486, -0.05803606575160042, -0.06648511933072436, -0.0807129890807506, -0.06425298461886442, -0.040416227245509986, -0.039743247722229036, -0.061737682530104435, -0.07271692924008935, -0.09174631289234736, -0.10660777936228973, -0.061059268274182586, -0.08092788285036205, -0.07203568799710292, -0.07109496566972658, -0.06509222417268168, -0.0563247407999537, -0.01604595573998864, 0.009245332734314243, 0.009674490729701122, -0.02854337264962941, -0.062071133057838415, -0.06888302555873121, -0.0703490399784465, -0.06045283986840792, -0.04438356880427047, -0.056567370423862465, -0.04010751613347803, -0.01854083653438023, -0.05754153852326385, -0.040876184849880266, -0.06185180932307887, -0.07774509563776558, -0.08202013506095053, -0.12084372039127261, -0.14583530295301816, -0.18665852875697497, -0.1765230920110944, -0.1629446627256949, -0.17741823850223865, -0.19254935594137285, -0.16263797950568862, -0.13090066222945146, -0.1062768240505643, -0.11986351076079553, -0.1307787695127411, -0.12365223881104884, -0.10978373425533278, -0.1244329532813922, -0.1305522060868438, -0.12660402017852534, -0.13970448168419242, -0.15554142012497427, -0.1538647583126894, -0.1815324940504242, -0.15559533596536895, -0.1608187814629081, -0.15348658828050374, -0.167829442577936, -0.18684338479968857, -0.168051627541256, -0.18523372686163828, -0.23663714782569886, -0.2160200328355019, -0.23603732446286718, -0.2373747465136138, -0.20201640221068287, -0.20143817120929178, -0.23163094665851697, -0.22007167217068102, -0.25435992823094933, -0.2971069059925537, -0.3078948438963384, -0.3188143121069458, -0.31514744990776195, -0.32147366781705716, -0.33160115454549693, -0.33725527101584674, -0.2961991617711146, -0.28889764042064453, -0.2960625332401538, -0.2857077334559004, -0.31389004001269527, -0.3069299013878026, -0.2946846711742267, -0.28957766567705445, -0.30550137826288126, -0.30850882498202087, -0.29098551895870756, -0.2919189590123742, -0.3221666670176775, -0.30711826244833795, -0.30348896486348553, -0.3007487552136134, -0.2706289028818332, -0.29830672285969995, -0.29254958398526715, -0.293947250516765, -0.32772711945957655, -0.3328512732643367, -0.3513911773625694, -0.3477519256162271, -0.33456756047258246, -0.3448515697170181, -0.34493502060097264, -0.3381801768936909, -0.3623236262223497, -0.37286582647492944, -0.3817463294117456, -0.39122837774480174, -0.38128085277695795, -0.3789754223130256, -0.3982132910793435, -0.3903297985783661, -0.4119842554594103, -0.3913917071450402, -0.39005538257895256, -0.40167570932247937, -0.4166129876243946, -0.4034152821305197, -0.40345825999694424, -0.41616127304967776, -0.4441670377316541, -0.4539368467508345, -0.5028638319968182, -0.5136572658642645, -0.5164868581146297, -0.5371462698614091, -0.5650073951891639, -0.5857233488112855, -0.5960792604975369, -0.5948024844937386, -0.5989709503800102, -0.6095128580728286, -0.5854236171741142, -0.5807963323997197, -0.5822763746856321, -0.5820577611266468, -0.578681701192818, -0.5856123590655175, -0.5767771885316714, -0.5811946359479371, -0.5952423607222509, -0.5960631577065096, -0.6011610648249998, -0.591900200677799, -0.6077347802306469, -0.6232228262116221, -0.6366680397164097, -0.6322282111765221, -0.6237973525907359, -0.6090852066344536, -0.621769538209154, -0.6366426857822662, -0.6421332756031488, -0.6405589221275645, -0.6222258748420919, -0.6038481061230448, -0.6074126094443849, -0.5922523554912201, -0.5930036912478737, -0.6166267312900826, -0.6248908594685139, -0.6311990488326588, -0.6134965015204645, -0.5995661811822043, -0.5792233956050539, -0.570165880217999, -0.5880283776930242, -0.5975296163053376, -0.6118075125322346, -0.6202069143625241, -0.653020238367677, -0.6363144319299452, -0.656827973903321, -0.6494704184460841, -0.6406104280721672, -0.657312223241491, -0.6599029258353903]",True,0.8000,0.3000,0.4000,0.1000,0.2000,0.0100,2.0000,True
43,nogo,Correct Rejection,0,2.0000,"[0.0, -0.029685965771807616, -0.06932205261454452, -0.08242857459304732, -0.10693976723921368, -0.09961580276977762, -0.06854635896807458, -0.08297771201017576, -0.0899171296915978, -0.08459595698331317, -0.11059900038885204, -0.1069700888195314, -0.11171614477750522, -0.11307806674819938, -0.13009847026586271, -0.1385065832880684, -0.15594696472405753, -0.14849263095919288, -0.14073409385221144, -0.12598126723321199, -0.10797879640748428, -0.10473728693531237, -0.13020182878106737, -0.10462201031889931, -0.08159860733581938, -0.09489146587117712, -0.09128637246117309, -0.12018808970057875, -0.08406079142571546, -0.10897752626922058, -0.08288536891509463, -0.09623562714053369, -0.1536691929540645, -0.1669945001780464, -0.17307569993456642, -0.18784460157546515, -0.17588620731454013, -0.17694747831813112, -0.19141363943751166, -0.18942353965267394, -0.17581707425267054, -0.21005851343301046, -0.23710306097534728, -0.21053294990810864, -0.20294221246825964, -0.20889590993298734, -0.2214278327456094, -0.21796476937813056, -0.18300870952623816, -0.15700288980684657, -0.15856801387660896, -0.1862116075368878, -0.1788458143402688, -0.18254768440712765, -0.19918044300680945, -0.18582708877596338, -0.19695636797791813, -0.20411562248049664, -0.17679805931770629, -0.18410119338250208, -0.19466119835760692, -0.18077453225848353, -0.18278185593200671, -0.16230765685881504, -0.20251686487975945, -0.20476650634143034, -0.19317156666800686, -0.20904941136386818, -0.2053200057902622, -0.24042751180367908, -0.24644669769216093, -0.2380642742188706, -0.2462782722628436, -0.2685023410873269, -0.30244049381357585, -0.3116285474002715, -0.30514559958327847, -0.3443098348593788, -0.36857664507697463, -0.3820942192225798, -0.3537432487337561, -0.39147194123434914, -0.3746191295876385, -0.3997741266485292, -0.42271459171413, -0.4151903212540236, -0.3943593923615563, -0.39186503459574495, -0.39133425969918384, -0.368892202138387, -0.3797711343716139, -0.4084184360508077, -0.3928681758863961, -0.4121087031430337, -0.42203937254288043, -0.43047152510874237, -0.3822547570623564, -0.3858795281362194, -0.3933402613779105, -0.3826800213205895, -0.3725842859486615, -0.34448660871059067, -0.33892682944470387, -0.3211485565218023, -0.317763396611411, -0.3116708252372832, -0.30567398624802994, -0.33215508023144397, -0.33611543561909846, -0.33650665077086833, -0.29728687297378625, -0.324715668261128, -0.31783459390921737, -0.30824093459965135, -0.3259411441253643, -0.36643444410888965, -0.3579666578023851, -0.36787648278459983, -0.3998497190211858, -0.4022867855212424, -0.4097193451317861, -0.41568428461497986, -0.4535242346536566, -0.44525033038269324, -0.4778562385445374, -0.4809235904825961, -0.5004359041789597, -0.5106685223824757, -0.5525296949047754, -0.5169282111079856, -0.5251126191558356, -0.5324576644177963, -0.5303438417455948, -0.5183251698311826, -0.5267838158674354, -0.5253195991655654, -0.5447602060954246, -0.5396768291700431, -0.5171507598264798, -0.5253042349062169, -0.514381580628462, -0.5097643315026683, -0.5073164397508024, -0.49469578887150745, -0.4718120029415218, -0.42733593037190054, -0.43082437516557665, -0.42871553832569353, -0.4732157441238945, -0.45629798004266936, -0.4627504070779592, -0.44637485222081014, -0.44208306259513314, -0.45291964483844205, -0.4449596860987435, -0.4513829276043615, -0.5001491276987533, -0.4874361431621929, -0.5094500278217227, -0.5349142444727314, -0.5308587488015838, -0.5149987344423466, -0.4702553415406187, -0.5044212962875098, -0.5021552114542198, -0.494905603175712, -0.4828646173563489, -0.46476027874319326, -0.4587605047459569, -0.4142212937093045, -0.43113242628590004, -0.4352274749502357, -0.44334387533447356, -0.43422425374129475, -0.4145498464424643, -0.4629821110563013, -0.49877579713434456, -0.5076000457707841, -0.513211564616289, -0.5287914166427067, -0.5715269472669527, -0.5618260638773803, -0.5530851615992581, -0.5633903726571549, -0.5859388668978368, -0.6066484327371031, -0.6358762344525531, -0.6246595023188691, -0.5966033830181174, -0.5928105971816013, -0.6035976051781804]",True,0.8000,0.3000,0.4000,0.1000,0.2000,0.0100,2.0000,True
44,go,Hit,1,0.2400,"[0.0, 0.013100040948054451, -0.0002487294114760022, 0.030776699839817873, 0.06691962574683168, 0.06142976247382161, 0.04972104298599439, 0.06047121514430345, 0.07955957229511074, 0.057891922382090635, 0.08048314227618415, 0.0858278446643547, 0.08780245605545504, 0.0986784289870851, 0.10677851762476984]",False,0.8000,0.3000,0.4000,0.1000,0.2000,0.0100,2.0000,True
45,nogo,Correct Rejection,0,2.0000,"[0.0, -0.0033736041794599245, 0.02717935385179152, 0.02002417022047991, 0.005067122192598604, -0.00979005885312544, -0.0541420039967318, -0.08191220690552949, -0.08833998456455823, -0.09358311869953526, -0.08586077227152959, -0.1173009847796494, -0.14707392945065426, -0.15138801768705737, -0.18468879343631492, -0.19562518138816612, -0.19937026566374066, -0.18169307138531993, -0.18389247935617975, -0.16662116630799334, -0.15494917905823186, -0.14692424267861148, -0.14567754373494524, -0.13370419562164812, -0.11906704266773138, -0.1252558216376876, -0.09643589678395209, -0.10644330084458363, -0.10960129194559895, -0.08159121247507864, -0.07378623526094386, -0.06165532283311262, -0.013466330025262381, -0.005243512298766403, 0.016005874290367456, 0.0032204771555672633, 0.019585160474664652, 0.0011130963455436502, 0.0002610366054102678, 0.020033276813795978, 0.001028641836699748, -0.004587085206378199, -0.02303977417221724, -0.0537877825901841, -0.031649785085999985, -0.034151139694360705, -0.048393621843510364, -0.04424393756504122, -0.025547069689780565, -0.0395173653187111, -0.07810281692245413, -0.04471341572540278, -0.07469849968957543, -0.11071100276695497, -0.09893165412144, -0.08161924884999458, -0.08075615754245719, -0.04243271830554444, -0.07326023545767348, -0.08806186416749257, -0.08766898379809743, -0.097565903731123, -0.072245216589751, -0.06300348119142046, -0.05379441111830123, -0.0458286189013269, -0.05194547214237085, -0.08365954851895951, -0.11201144605862998, -0.13360217916950318, -0.16083189004998438, -0.17235517067251732, -0.19909462232733616, -0.18467256257867704, -0.15467379181687813, -0.14789939558703852, -0.1617927571432176, -0.1646493528595233, -0.17267013351309213, -0.15319320088922314, -0.15613974619429494, -0.15616955420546197, -0.15336771534727098, -0.13376821459703533, -0.14363968519018086, -0.1365572633681901, -0.1311125659516681, -0.1491033471785718, -0.138002474840358, -0.15019762867435332, -0.13508970417520302, -0.09421959817993587, -0.09407314239986328, -0.07684202857369496, -0.0909875910610424, -0.0894452427697425, -0.08380858266025475, -0.07571726393036296, -0.10437470167047544, -0.1233084213520614, -0.1083706592175186, -0.09138227228842624, -0.10699913429699383, -0.0945621129368102, -0.06429352481496572, -0.02345747462714933, -0.029397726299278653, -0.054532977552098974, -0.06999962246879607, -0.041759108913327715, -0.05321446700355702, -0.032753192689089355, -0.04107934135546075, -0.012969480133179018, -0.012453497148885856, -0.023908690910086936, -0.04041201710300134, -0.04968650282453539, -0.09236364017876592, -0.06488395810494128, -0.06217057357165035, -0.07871231525202749, -0.07782088196414591, -0.07276096131705541, -0.0913860469803568, -0.059258649415720205, -0.026879625847453917, -0.033493744243768865, -0.04464078944978271, -0.06955694337761086, -0.0726077923196311, -0.0833850431867686, -0.12388439066754697, -0.09655477989031228, -0.09372407895073583, -0.09092334625501403, -0.08185407959291024, -0.08913560722805726, -0.11520255821927086, -0.13592607862505138, -0.12524232083134715, -0.15428824056012275, -0.17204594519266997, -0.1414381891566711, -0.13563888689465092, -0.11719942713040356, -0.1164567568716787, -0.1438013155558095, -0.1012293498791994, -0.10155112134565947, -0.09055015806320682, -0.097202609547914, -0.10171685792254669, -0.06385582398605061, -0.06885955685793729, -0.056164510135132184, -0.05556543818281269, -0.06533316625678152, -0.11000239962541056, -0.10818060492139583, -0.10874687806669397, -0.11102292429852789, -0.14277128032121875, -0.16699530570169563, -0.16350374809725218, -0.15566947776626186, -0.17147367957190293, -0.2060420475119568, -0.23232430323288528, -0.22670629961043384, -0.25134073849000654, -0.2402228739781594, -0.22971584398559966, -0.23493605254126992, -0.281682596109451, -0.2839326991748427, -0.27863170451834884, -0.2792204597482761, -0.28742846690316703, -0.2798902638232398, -0.24661478205211695, -0.23578704798961678, -0.2618935736635565, -0.25579995274995027, -0.2641668224336364, -0.23979433876468498, -0.2131463106409137, -0.22593630540341259, -0.2562067868061575, -0.2565912536122284, -0.27121880838887114]",True,0.8000,0.3000,0.4000,0.1000,0.2000,0.0100,2.0000,True
46,go,Hit,1,0.4100,"[0.0, -0.0035432640983466927, -0.006069039120592666, -0.03092329509489878, -0.0429349362860585, -0.06300309137681076, -0.07063499936367158, -0.07306772429563163, -0.052062953853528306, -0.06729394387870459, -0.08241172516117709, -0.08151944805116489, -0.08528348380798546, -0.0689576026171214, -0.0459318274347457, -0.054207292991455464, -0.03218519297998131, -0.001351353551410632, -0.040201501507852525, -0.00636299846941956, 0.0160809388045371, 0.042046331361527925, 0.026893321836938096, 0.01902618832494461, 0.041346338198095745, 0.06282352238759265, 0.07741635247733254, 0.08092431443851747, 0.0737675816242951, 0.06744924487431288, 0.08897314583417232, 0.11071588619696669]",False,0.8000,0.3000,0.4000,0.1000,0.2000,0.0100,2.0000,True
47,nogo,Correct Rejection,0,2.0000,"[0.0, 0.0014900178843585397, 0.021645970172960168, 0.004017832633393507, -0.027612156389638518, -0.0557367360015192, -0.05158014337980708, -0.06263236146719273, -0.0668067376092127, -0.08757384630413281, -0.08764381667264212, -0.0995201202925173, -0.14651232678912404, -0.14971129272352227, -0.16525568547994654, -0.16598387788007388, -0.1553707515567662, -0.13690111078479383, -0.1410802337257719, -0.1719961194291159, -0.2127990676759128, -0.2158420689591746, -0.2181937593819338, -0.20885729708037018, -0.23972951040257512, -0.25920890323834994, -0.23404800286517144, -0.2616609182396901, -0.2978988537308041, -0.29491000334487716, -0.29303487879458984, -0.29374614262811416, -0.31585630284132615, -0.3025407294119477, -0.314446584326143, -0.32729212063699037, -0.33113587104266207, -0.35324275555715995, -0.3543545236437087, -0.37742717624769895, -0.43389527065612465, -0.43128687314194347, -0.4157492027415461, -0.4067228148087694, -0.4066783209597804, -0.45338264423516705, -0.4383226875581612, -0.4550528724038267, -0.45528763627776303, -0.47760018316304875, -0.48058711436396145, -0.5038548934455556, -0.5183519489496634, -0.5358083248247476, -0.5194547122080839, -0.5202303011664142, -0.5433030265994647, -0.5380298064143698, -0.5232164144463979, -0.5182189286778938, -0.4853989664725965, -0.5041241688976874, -0.49943116396112874, -0.5067308303951981, -0.4980492523236116, -0.500185718008723, -0.4982162755923671, -0.5054203408363749, -0.5258709319189977, -0.5445841463105423, -0.5709975272324893, -0.6002909231803002, -0.5821232011972162, -0.5529753425214382, -0.564290762995676, -0.5688441208552132, -0.5916842193068604, -0.6010340192137626, -0.5910285645163382, -0.5981974824752843, -0.6598012360045902, -0.6751374263709236, -0.6975652832007835, -0.6693406226328236, -0.6488900692090955, -0.6659161519553204, -0.6483191115492855, -0.6552236694585846, -0.6276785140680663, -0.6279533579241798, -0.6077285971748586, -0.6258005441030925, -0.6066806219112689, -0.6096343503342491, -0.6251356373946741, -0.6303404543732232, -0.6227009005072884, -0.6513854986799597, -0.6576320320994974, -0.6485795049404971, -0.6884264028121307, -0.6568681433764038, -0.648930002451794, -0.670654923214914, -0.6445786209046918, -0.6569373227074796, -0.6464042300258523, -0.6412995247970787, -0.6178961653288484, -0.623400418817659, -0.5964370829049473, -0.5977949722924248, -0.5943329102046048, -0.6020817614063442, -0.6173919298819583, -0.6282524733997975, -0.6489124419895662, -0.6445266891385891, -0.6972157129670263, -0.7176954344802571, -0.6946014559815266, -0.7271430537165717, -0.7293837590582579, -0.7320957310943682, -0.7351043518677872, -0.7261181929529651, -0.7304229919511006, -0.7687019716972795, -0.7768633255386981, -0.7668563202798266, -0.7495913238163581, -0.7450015021953684, -0.7488191994909741, -0.7396553222178017, -0.7542506461969698, -0.7757292955781628, -0.7787075512407653, -0.7469596579650042, -0.7374368226728373, -0.6917295900667243, -0.6915128933483635, -0.6860913871063693, -0.6821176998569674, -0.7156298699895949, -0.7380821937499861, -0.7465193175275262, -0.6944323286347713, -0.6817848684998604, -0.7034700657493608, -0.6934284590759885, -0.687464325646631, -0.677177668863346, -0.6523311735111976, -0.6597225291421689, -0.6816084805475077, -0.6903542374990964, -0.6751093829070306, -0.6765144426190998, -0.6768318050476169, -0.6861886223786297, -0.706066161328832, -0.6955597216419814, -0.7596789617645572, -0.7724424604998571, -0.7568907161025503, -0.7461206448140754, -0.7315941724222471, -0.721672953855018, -0.697704748568028, -0.7082963379459931, -0.6941910104723857, -0.7038679647743349, -0.7306993716125785, -0.755598516205889, -0.7836455116225719, -0.8000078783165385, -0.8600198398757749, -0.8558118686219696, -0.8574806750554722, -0.8873788865057648, -0.8914791612742149, -0.8620950201657802, -0.8927674958208787, -0.8915575697028981, -0.8830027669265718, -0.8970676215105781, -0.9150572643003907, -0.9166175588262103, -0.9443740613461218, -0.9412477081592915, -0.9531704232818893]",True,0.8000,0.3000,0.4000,0.1000,0.2000,0.0100,2.0000,True
48,go,Hit,1,0.2700,"[0.0, -0.0029891113959952184, -0.016019823670626692, -0.03329615798664099, -0.026122563963955146, -0.009890905940787266, -0.0378854544426855, -0.041320787337661605, -0.039700404066204634, -0.031743467377355894, -0.005126072106183124, -0.026557123676497967, -0.0036121765114607053, 0.03512916176350871, 0.06160060287449935, 0.04962745633327352, 0.07288004064480116, 0.10735410203938103]",False,0.8000,0.3000,0.4000,0.1000,0.2000,0.0100,2.0000,True
49,go,Hit,1,0.2600,"[0.0, -0.011657266406336478, -0.045488576033355765, -0.046381203162158796, -0.04126638914514632, -0.03898152926687082, -0.027332937298567582, -0.011396322568815533, 0.016434926441976017, -0.0005907908152352863, 0.003891528535353593, 0.02268424129582048, 0.05865051368505897, 0.047515470771828675, 0.057001926699050055, 0.08687968847912769, 0.1326153363955256]",False,0.8000,0.3000,0.4000,0.1000,0.2000,0.0100,2.0000,True
50,go,Hit,1,0.1900,"[0.0, -0.022387011135364135, -0.007961211692998998, -0.005228801775299927, 0.002404421053141788, 0.04045803986871629, 0.039170187495242884, 0.06641161318901098, 0.07707454231793862, 0.10027996872504402]",False,0.8000,0.3000,0.4000,0.1000,0.2000,0.0100,2.0000,True
51,go,Hit,1,0.2800,"[0.0, 0.03157960880203767, 0.05062402362918029, 0.011509330754480608, 0.03306225379237045, 0.02454253420136188, 0.0029252257892972977, 0.019409051327867834, 0.027132332522099706, 0.050151558681646766, 0.07935809440895139, 0.06574618812286817, 0.04369038621164089, 0.06601188002901923, 0.06556686111360703, 0.09856545960728004, 0.07591796654186143, 0.08856161209335614, 0.11679951761538337]",False,0.8000,0.3000,0.4000,0.1000,0.2000,0.0100,2.0000,True
52,go,Hit,1,0.2500,"[0.0, 0.04056800858457023, 0.023428913691395235, 0.013071129225900167, 0.03094089105194599, 0.012683029054516095, 0.036664448089828515, 0.051816981669258605, 0.04871462544355527, 0.07085111011550847, 0.06059031548619325, 0.08174581850673056, 0.08497347845596279, 0.09296992891708239, 0.09301065128571724, 0.12393062427505275]",False,0.8000,0.3000,0.4000,0.1000,0.2000,0.0100,2.0000,True
53,nogo,Correct Rejection,0,2.0000,"[0.0, 0.00027143404116743153, -0.02381360846536414, -0.006844161232153607, -0.028511268087408812, -0.01943067347910327, -0.03908118722237599, -0.041602473492086865, -0.055864776145565405, -0.06631388515207182, -0.0694417955870018, -0.10854032166359384, -0.1264879602406319, -0.09907897179801683, -0.12361769626873695, -0.11084480989305805, -0.12036172948050691, -0.11390322949579215, -0.09894687019345962, -0.11620343453399697, -0.11909988933972226, -0.10357003694328235, -0.15024682079484755, -0.14276525990151087, -0.13833349446158316, -0.15144450631610412, -0.13626336354679186, -0.1199208926918042, -0.15252946393572686, -0.16889245037312556, -0.15389333182450232, -0.11664655701299417, -0.11540532056886217, -0.0864486667841262, -0.09679741089726054, -0.10080843102234889, -0.10158770406463608, -0.15316773796866973, -0.1830611845230588, -0.18500272863146947, -0.22586084413968383, -0.25891073711641194, -0.2738681757470895, -0.26917709154237857, -0.2834801654518823, -0.29793238213334494, -0.30285402751924395, -0.28057691042017485, -0.27406081801266347, -0.2809079322368274, -0.27875344413499764, -0.2980411133696416, -0.2899009965957992, -0.31419809015547134, -0.32089075491103436, -0.3558118665602451, -0.3367421762479182, -0.34415639346302085, -0.3416208113764856, -0.3106437698639853, -0.3083692027988593, -0.34043122669140313, -0.29869428610529375, -0.29758789696259547, -0.3356800713587086, -0.35492480890093636, -0.38463005207220774, -0.35297393313657993, -0.357777505135999, -0.34864333216587134, -0.3282007770303209, -0.334727621863054, -0.3039117798691179, -0.3348499337323235, -0.36101026937744124, -0.36157583175770885, -0.37897881988800736, -0.3760215412437595, -0.39869781987760206, -0.41144049081254425, -0.4296305754475538, -0.41662607069040525, -0.3913765410588848, -0.41277271196630544, -0.4490637792165083, -0.48478491976374133, -0.5073980824130832, -0.5122167512309748, -0.5031789830777937, -0.4926101069386588, -0.4670793481149349, -0.4453361790140537, -0.46157543235272736, -0.47088821657023394, -0.4418488379503529, -0.41614106124888606, -0.43990110253731207, -0.48474502065874864, -0.4433592866729792, -0.44110970488909645, -0.4530323004281087, -0.4419341236496611, -0.4203135082355649, -0.4419861037370863, -0.4582130897698598, -0.45395291617508254, -0.4639001650149789, -0.4417646548892843, -0.42257547058256706, -0.44662690361311813, -0.45908009205618555, -0.4681514643253015, -0.49927816598543734, -0.49898804938096464, -0.5176038551327203, -0.5199878906393197, -0.5204638366882807, -0.5017443724856709, -0.5078319999431525, -0.49443628756706937, -0.5134576635890251, -0.5057791013860329, -0.4714002329697881, -0.45510008839571964, -0.4263720773847718, -0.4387253915466836, -0.41950933837908366, -0.4141136283124158, -0.37431532903571973, -0.39170078465883, -0.3963470424783826, -0.3909739707884958, -0.3929455435046739, -0.3789082361460211, -0.37717952102809565, -0.39975516243990517, -0.4180094266228582, -0.39147727604850924, -0.39034355529776715, -0.3776194838787549, -0.39133172292210383, -0.42029012095270485, -0.4453619268105753, -0.4624077058715436, -0.4794010998100934, -0.4836215787606885, -0.4443725373444754, -0.459016089876064, -0.43976311942825136, -0.4252784944214789, -0.4468090547762775, -0.42853674705674893, -0.45819923341426544, -0.4649155304264082, -0.481701673465474, -0.4675618404462255, -0.4444669562389446, -0.4109264278088587, -0.44120465421876087, -0.41333812291213917, -0.3799349478391815, -0.362115613890352, -0.333119014720479, -0.3451652388833695, -0.36299501323375016, -0.38680930551058895, -0.40540490885498487, -0.4145129041701772, -0.4150430886319801, -0.412647820991696, -0.4053015691388429, -0.396160208301015, -0.41170502907012746, -0.4545729930675859, -0.42307641125867607, -0.4652692204093982, -0.45615305373925824, -0.4972072382642336, -0.5022570688850548, -0.49085791880271923, -0.4908717584951717, -0.49358987267810084, -0.49563567692462446, -0.4987210348117754, -0.4797015552005566, -0.48686943576458386, -0.4761461357224966, -0.49250603433860196, -0.4817573726615865, -0.5002992229267655, -0.4617670219584882]",True,0.8000,0.3000,0.4000,0.1000,0.2000,0.0100,2.0000,True
54,nogo,Correct Rejection,0,2.0000,"[0.0, 0.006591040157434652, -0.048292242569800733, -0.03301118366979858, -0.044140308903576425, -0.031924718139587055, -0.02335752386527953, -0.05098338357305238, -0.06234988413182062, -0.08001327548659225, -0.08965939979943076, -0.09325800459639744, -0.09361898136881475, -0.11535595551668319, -0.14344925140599502, -0.14094357256518325, -0.11462481553910225, -0.08856717852045046, -0.08351875521930727, -0.06544669036216413, -0.06847867186962277, -0.08495538642590235, -0.10061036902709969, -0.08890363927462071, -0.0985965768011804, -0.16178280299534775, -0.17932395778890775, -0.19385895999976752, -0.22433934395909175, -0.24223767085341713, -0.25126990477250105, -0.26595418975076546, -0.2465692666768931, -0.2824034968825913, -0.2938934173189929, -0.33360335216608283, -0.3417358772547603, -0.3462212572823001, -0.3470214281082718, -0.309597489988706, -0.28612930190668995, -0.27557922235483806, -0.28220386931890323, -0.29516337045564917, -0.2797940244483885, -0.2879614358233857, -0.25586218580974407, -0.26268640983300207, -0.25837787812280744, -0.274777192991845, -0.2903266529602511, -0.304473818448033, -0.2959789842433676, -0.3087297014062933, -0.303242576629644, -0.3253491593079224, -0.32832227771141737, -0.3366580676529166, -0.32501265019068365, -0.361569708495984, -0.3763540621280881, -0.35840681590087986, -0.34733455237323285, -0.35443172580317817, -0.38932533005011827, -0.37609795609411273, -0.3899356698648873, -0.4257079554985179, -0.43534309491463746, -0.43893313739006135, -0.46803967637953214, -0.48174077689297706, -0.4775701495731597, -0.4675813780098595, -0.47290148399385495, -0.4613233657331032, -0.5155497129156498, -0.5244470789640426, -0.5018272463244434, -0.472010464174371, -0.49117004503576084, -0.5121072410918311, -0.4791666225112211, -0.4631717583015986, -0.4832872538541714, -0.46967617164541325, -0.4856417846703406, -0.49039743998202656, -0.48988436736998375, -0.4943011915436573, -0.5087736340473697, -0.5136737075120341, -0.5019737229420839, -0.47390042356069895, -0.5111257837154517, -0.5055133078945973, -0.5280622706571346, -0.5175749071629665, -0.5497633834433028, -0.5623028121878576, -0.5888323309089416, -0.6073414292720002, -0.6174967033520369, -0.5973908048320407, -0.6013295361832436, -0.5925530681847585, -0.6013468312741551, -0.618590942767005, -0.64136341639936, -0.6471612527957494, -0.658559068147257, -0.6581191769997606, -0.659719939419337, -0.6695585708852005, -0.6712705763259648, -0.6847623759603724, -0.6867979796590553, -0.6946611739650763, -0.6760497001638793, -0.6298893625941183, -0.6336512527826267, -0.6430428898085018, -0.6455541480759893, -0.6613076236156694, -0.6764389372996853, -0.6660973393860722, -0.6633916177219473, -0.6817674434759254, -0.6843353452421944, -0.6961300914250135, -0.7159217278749059, -0.6837506704692173, -0.7028753936426622, -0.7215215635434448, -0.6980312054061677, -0.6966701904539614, -0.62581186798219, -0.6056769995436986, -0.6057257555024805, -0.6267515369057347, -0.6155002019573532, -0.6189729768315207, -0.6025179736694195, -0.5626433961690946, -0.5342921304791245, -0.5367692463352717, -0.5577781958951139, -0.5518235405765478, -0.5879085371537639, -0.5700825983080425, -0.5493779311586823, -0.5702956253795879, -0.5706858595720166, -0.6204126242688953, -0.6494362649929422, -0.6417097523295903, -0.6656563368937202, -0.6462387780094027, -0.6648252541253795, -0.6886661920304638, -0.6750689041412751, -0.6556348322958893, -0.6623993028324762, -0.6647558432209352, -0.6254846046330901, -0.6385642248675502, -0.6711967554761469, -0.6778023743057028, -0.671090258131966, -0.6417018326083808, -0.6163016078220147, -0.6244941991736154, -0.6013673008147987, -0.6127333625534601, -0.6163373179457255, -0.6335732764320949, -0.6210026945435523, -0.6502394380371708, -0.6914297342861914, -0.6820388020223987, -0.6912133581987014, -0.6732667355683678, -0.668934036844704, -0.6781675291726683, -0.6846175652298144, -0.6878996052842689, -0.6843045713376117, -0.692633232979301, -0.6804782263782799, -0.695124455605261, -0.7192307808372634]",True,0.8000,0.3000,0.4000,0.1000,0.2000,0.0100,2.0000,True
55,nogo,False Alarm,1,1.5900,"[0.0, -0.019288829416248706, -0.033315568861798456, -0.04678759437544619, -0.04531192947599236, -0.04200597526415817, -0.030366242138567572, -0.038658479514773254, -0.036802992224143495, -0.05007292762171492, -0.03556874081279779, -0.03515705676091726, -0.07184740680829185, -0.0762851128267461, -0.0849497201115034, -0.11006492615120533, -0.11850099415196526, -0.08666284949215193, -0.06378708488361284, -0.043433599504260324, -0.019747514624293177, -0.04269073396896759, -0.02843573923698239, 0.0046571623024428445, 0.009751719589827405, 0.003628192359763675, 0.004920073057065162, 0.0025351897150324744, 0.020624542944709823, 0.033862362146381136, 0.02604550288720798, -0.016267387154130203, -0.06596520990197446, -0.09253124846718001, -0.07490603981435424, -0.13147978447706973, -0.15395002464812757, -0.13672703304038938, -0.15260085327570222, -0.16644689568892257, -0.1373710271370853, -0.13352969112114907, -0.11509133887122018, -0.12007005425095565, -0.12391565189340138, -0.1364426555448462, -0.13952571897692273, -0.15669716722928104, -0.13790913961513573, -0.15077979954923518, -0.1595245017472128, -0.16102465908476918, -0.15133958146815224, -0.1384097898111716, -0.12832543169678517, -0.1465032438797534, -0.1587641376088704, -0.17742585455489976, -0.1731543849991143, -0.1637006564361874, -0.15145225844909305, -0.15621823421019632, -0.1615804720449926, -0.16438712309380116, -0.1645595897104191, -0.1540428387526436, -0.13101065581449015, -0.10824683097039117, -0.09241862268976987, -0.11926694566854323, -0.09345556712627001, -0.0791849501342947, -0.0767860844571919, -0.06906043067907798, -0.084950083753081, -0.09473711761887671, -0.10731604406535288, -0.11679380231068776, -0.10670948355641102, -0.07891513902714069, -0.06931313031961976, -0.06591878952100719, -0.053609549208748414, -0.0694183353792978, -0.07391304736915576, -0.06789402246559609, -0.04910096541734742, -0.023497796344807968, -0.02657882347942873, -0.05783263247952081, -0.04208823828334851, -0.04201494931700016, -0.032280163449062205, -0.026247538427555884, -0.03292027627397509, -0.06097321311841758, -0.06764655555704428, -0.05673117295035417, -0.09291058702317499, -0.1361017405028059, -0.11355345610683196, -0.10411903545972197, -0.07702226720795184, -0.07562259116499268, -0.07731121623997178, -0.07906992469235706, -0.08699363917695092, -0.08452261417949147, -0.09682727670273429, -0.10742246812619032, -0.07425013692895638, -0.0861804105243075, -0.07815979865190925, -0.09101986112341731, -0.08794933311492573, -0.05169129325031206, -0.02294163443580419, -0.02233549915894909, -0.019953105577461133, -0.00352881949722263, 0.011131019367883327, -0.014495835878130262, -0.00936611728806325, -0.029701710850322957, 0.0061585957759762375, -0.017738718791924454, -0.009077429109563096, -0.0009853703044928226, -0.005200736841558734, 0.0202672478729154, 0.014112026824368195, 0.030989070654003838, 0.01749768271209587, -0.007505239897619625, -0.010194933575609366, -0.019124241182262594, -0.019783163508279737, -0.01204049751149525, -0.02665890183895425, 0.010923585986329958, 0.030742592013531828, 0.04453636825602823, 0.05940972775196522, 0.08227967487942926, 0.09828377321440265, 0.09688315686270947, 0.08251198484872001, 0.09114340813545996, 0.09932842291705692, 0.1121455330122987]",False,0.8000,0.3000,0.4000,0.1000,0.2000,0.0100,2.0000,True
56,go,Hit,1,0.2400,"[0.0, 0.026836181069666887, 0.022863243559065112, 0.05198608674961136, 0.07162774951550317, 0.07599935323371564, 0.05457604580748408, 0.06272536244584753, 0.06953136342556816, 0.08249468688341102, 0.06765260254105923, 0.057175801342924014, 0.07861416433879934, 0.09401763468358079, 0.10509605200687812]",False,0.8000,0.3000,0.4000,0.1000,0.2000,0.0100,2.0000,True
57,go,Hit,1,0.3500,"[0.0, -0.03381667081768158, -0.04769036474169082, -0.01041928330737886, 0.017096616206845588, -0.013642786694796027, 0.0027484206201279365, -0.009655913904377308, -0.021759553680672013, -0.014067070288043396, 0.008946911121602081, 0.018734993452525196, 0.036075964124782145, -0.0049423429768513105, 0.013440494626769862, 0.059328995028612705, 0.04961209146042701, 0.039180211624691055, 0.06633860942034439, 0.07559088627560222, 0.08445846480784844, 0.08167196019568201, 0.05168829105614078, 0.0664691977119694, 0.08541806867747584, 0.10785155257226975]",False,0.8000,0.3000,0.4000,0.1000,0.2000,0.0100,2.0000,True
58,nogo,Correct Rejection,0,2.0000,"[0.0, -0.00015274489960022484, 0.005638543549316241, -0.012489522569893774, -0.015813497468716527, 0.0034472642408271102, -0.0436168245767012, -0.0418057498356415, -0.04490812101810922, -0.033713678812718396, -0.01641420723384057, -0.0393991332687219, -0.02313764902739958, -0.032279852847207025, -0.027396562509429713, -0.021143223607184757, -0.04720261576153662, -0.04524692593528854, -0.03369470798593306, -0.0652379941172419, -0.05233043008568321, -0.04782730540174021, -0.0793175278627697, -0.05373569266328504, -0.045376290792495666, -0.08706227502035863, -0.07542896105982146, -0.0914179478423573, -0.06403510876177743, -0.07164373304240182, -0.06952684843847787, -0.06897124647094074, -0.05398703614431011, -0.08331538513073419, -0.0663942982843452, -0.050862494668955885, -0.05666327084153899, -0.06991284234668169, -0.09026431937518123, -0.066771144420578, -0.08963298105549, -0.047694699875035364, -0.021976628230803753, -0.03022795955231273, -0.010177183017911005, -0.02889576525810013, -0.06838933597666894, -0.0642882062907055, -0.07829331387690856, -0.07245402966832303, -0.07168540253305299, -0.08106567747616146, -0.08159446371720629, -0.08574641237176905, -0.08669960920515536, -0.09864208318746254, -0.09492222002219458, -0.15368352296566426, -0.13575693186117171, -0.10413915464270712, -0.07919139179527095, -0.09730343940852028, -0.11482757250075662, -0.107666536827634, -0.10445004274533187, -0.08530262126562414, -0.06756328201115488, -0.09461887070621625, -0.09219697059856906, -0.09127188780213707, -0.08739124265761399, -0.10915394804012749, -0.1488535916744116, -0.12749233733737297, -0.11748886216182586, -0.12382468080208649, -0.13973157932281846, -0.15836512037682082, -0.14171680531337916, -0.1484364112296481, -0.1423417639093394, -0.13336085672602618, -0.11866311623520878, -0.1188955512523582, -0.1494290931228633, -0.12133519753121955, -0.13075444734884636, -0.14191102691580693, -0.12454467239110849, -0.09357708004606655, -0.03912779242458781, -0.014322940047014638, 0.009523566209897371, -0.0243604368592493, -0.03357633906650767, -0.08816607547751915, -0.0896722198929584, -0.07361088679948004, -0.129769893631415, -0.12467674595931491, -0.15072952160947706, -0.15526685234631477, -0.1337222911413371, -0.1463111214369351, -0.1307075903460061, -0.10399981397748648, -0.12268464011404492, -0.13861605977903643, -0.10936984352733495, -0.11623126621401632, -0.1312714678680765, -0.10352649796041367, -0.11697524626135167, -0.15153826310789403, -0.15414337435769424, -0.14311393448969964, -0.0911815273274956, -0.08076786117621791, -0.08493512530646154, -0.10434174264989104, -0.11280549245301223, -0.11452283283493708, -0.13166867552770606, -0.14370633522698578, -0.20154042158693714, -0.1847294890421885, -0.21215305164730835, -0.2482368625269543, -0.22584540828073355, -0.23011322189811267, -0.20634720771075188, -0.22948031988038597, -0.26238867183498166, -0.26948264488440393, -0.2863881349688751, -0.27090668563010856, -0.2653178227576916, -0.2949856961508771, -0.29137601268134133, -0.266807678732788, -0.2412594225443584, -0.22936533989287733, -0.1979335644957842, -0.2238283374570643, -0.20742210737747788, -0.24234385955741458, -0.19148560504524714, -0.17401388416314392, -0.18165537979076896, -0.1897397681176054, -0.19165793093341363, -0.19335089395242294, -0.2244480421822807, -0.24061373095057645, -0.21789864005463133, -0.24855202403765464, -0.21539615911438037, -0.22966044853263196, -0.2609028322513747, -0.25701639201426624, -0.2499844055671705, -0.2587219624480936, -0.3045641892907182, -0.32036198002143745, -0.3029807519092398, -0.27121200398997164, -0.26625055108886336, -0.2719230886608381, -0.29745624415294597, -0.28972634655566853, -0.3199461034351898, -0.32359782029855677, -0.35277879691576197, -0.3736901123914294, -0.36638027976229803, -0.3337895452497459, -0.3444972665812312, -0.34789679840313986, -0.34753177875340735, -0.3251260570522546, -0.33913230453369764, -0.3452897599416194, -0.3481789751807214, -0.3595992006874778, -0.36357812245755877, -0.3709809468628, -0.3611083468338974, -0.3836024727728078, -0.39277439007458015, -0.39272163276296806, -0.41970710672085054]",True,0.8000,0.3000,0.4000,0.1000,0.2000,0.0100,2.0000,True
