trial,stimulus,outcome,choice,rt,trace,timeout,w_s,w_n,threshold_a,t,noise_std_dev,dt,max_time
0,nogo,Correct Rejection,0,2.0000,"[0.0, -0.04934646008160618, -0.02737303658855981, -0.050948401723313275, -0.08295066654652261, -0.09680476976863872, -0.08435368474603737, -0.08844094389500402, -0.12240293550110502, -0.14100421397774754, -0.14928672153970257, -0.16508701054713887, -0.192212792637722, -0.20850010278315753, -0.2416205844084635, -0.257332871296135, -0.23675600392515198, -0.20040498086120373, -0.19843800327765884, -0.20583116735426754, -0.22553588142799624, -0.22979861264207588, -0.21414770935798919, -0.210859997638431, -0.2123407908688985, -0.22158489615991261, -0.19582544564252635, -0.1702060719189946, -0.1814618557007203, -0.14449352590103215, -0.16923237263510327, -0.15016108030225653, -0.17500627338550198, -0.16643573978017795, -0.16233090933138855, -0.18093702055073835, -0.18914243046974352, -0.17849330081583126, -0.19657981363122184, -0.16396048974859517, -0.17165528591689544, -0.14996485786139632, -0.17111243366725207, -0.18220316717393614, -0.17695479797218344, -0.15399605088118376, -0.14964108999411235, -0.17476430178407246, -0.14673823810350767, -0.18713853373300957, -0.22649310568727377, -0.21587501319769545, -0.20918659219537838, -0.20920771463206947, -0.20497808841336934, -0.21302916123847115, -0.24406028635470384, -0.21209863180324526, -0.19512569280602537, -0.1814936491886351, -0.16007986225035237, -0.17328728211607514, -0.17937787011989, -0.16305172773526577, -0.1730802750314827, -0.1720717694343401, -0.17683769791141388, -0.17511100159122003, -0.15635963050897783, -0.1614145500451773, -0.13402781374598496, -0.10940969419561174, -0.14532810440205976, -0.11282256998899032, -0.12338287706565179, -0.11710265177359282, -0.12274036523721243, -0.15862488243015033, -0.1547620806830262, -0.12913343187441256, -0.13177688538123705, -0.1481114716078796, -0.16036904767144605, -0.1584157212303458, -0.16895329043315688, -0.14600359952690745, -0.15185381336855389, -0.14710195747326493, -0.12154567865090593, -0.12514816616384297, -0.12101395395337973, -0.13684882743318483, -0.14019694295818536, -0.15098271173460912, -0.1760587581164393, -0.18464543663507374, -0.20199597231719663, -0.20153123160485675, -0.20120687721783204, -0.2417288176386832, -0.26498212814873956, -0.2503669669919357, -0.24696617683567115, -0.23643535086282316, -0.2341453751264203, -0.2696024398013704, -0.25499499922965746, -0.2535930129414614, -0.2589547511487902, -0.27232207805719927, -0.2834044775196232, -0.2972849787721739, -0.2904363435446123, -0.2978091490739601, -0.29064840541050957, -0.2366358492621999, -0.22571777867369103, -0.21944563861188252, -0.2640328009726651, -0.2623308381548604, -0.2993595966623743, -0.28310792072897684, -0.2777791666640445, -0.2573700895432061, -0.24808897350359607, -0.239518614014619, -0.244382856889434, -0.2511217306769084, -0.23113035263825565, -0.25357269388076253, -0.25216235895860223, -0.25111660441279693, -0.289232736444811, -0.28610362945556805, -0.3103905467077642, -0.3086948326305202, -0.30716827833823274, -0.3334196086293171, -0.30647746867425446, -0.311366569116002, -0.3015386073211373, -0.2912704405715643, -0.33421209578121397, -0.3229657463774601, -0.30275153308966246, -0.273715918084828, -0.26483079833522105, -0.2653259260279885, -0.28063300757798204, -0.2788076299650358, -0.2921946406072606, -0.2851309637454702, -0.30652520356862395, -0.2744815115839372, -0.3020815694767147, -0.2946933852092775, -0.3272531957968777, -0.32746769832673905, -0.34073604860786505, -0.31645216231411677, -0.2858151559910808, -0.28948387299097184, -0.3303114062747815, -0.3641587723317529, -0.38363220054080394, -0.3704187083304332, -0.37990028278240723, -0.41137898426899233, -0.3735220511602944, -0.3893176080526293, -0.3944993567289369, -0.43630320703708536, -0.4237157692530399, -0.4091559391195053, -0.4079497396677698, -0.4273795665644635, -0.4458227003176476, -0.42643240285370737, -0.4238658456442479, -0.426236121692339, -0.43625552689292973, -0.4500702008017969, -0.42521979860058384, -0.41918515899468517, -0.44265832778237063, -0.4681277124616708, -0.48023698389754066, -0.4774524417870216, -0.45944661122667274, -0.4718847812648638, -0.47403502221547517]",True,0.8000,0.3000,0.5000,0.1000,0.2000,0.0100,2.0000
1,nogo,Correct Rejection,0,2.0000,"[0.0, 0.0035744543122062863, -0.016411867710169503, -0.026082276576396567, -0.024928248181801674, -0.005388634841082759, -0.011354589888982788, 0.01208976788788068, 0.00597512050485523, -0.00359223134408665, 0.003639056675739714, -0.02312072394610805, 0.003408664646196286, -0.018295474939279372, -0.02468657928410969, -0.018455705896843127, 0.013578061440161406, 0.018128094665771203, 0.046245627297242284, 0.045952783478692576, 0.05961550781413296, 0.07132546872260584, 0.0673834775128922, 0.09704751235816214, 0.08716337526554242, 0.03563297905840682, 0.02417236567281704, 0.00811882814023331, 0.019834224733783566, 0.01022479267580113, -0.005769857680402123, -0.0027404902346246564, -0.01251625742274364, -0.009210257129794768, -0.014454232455594792, -0.019728099769379417, -0.030089252627002693, -0.04795244438025486, -0.009978601190114907, 0.005767127308224727, 0.006957198837541472, -0.0263904841172838, -0.012468891886519604, -0.027852360091305615, -0.057340696436034566, -0.06494047150434856, -0.06169131104183937, -0.060221154321211376, -0.0637423668988257, -0.060124484632393935, -0.06800699390878288, -0.11666579172906645, -0.1402767193448844, -0.13657844965452465, -0.12820899175353345, -0.10118813119955526, -0.11834153037161804, -0.1168105697692894, -0.12297969310678626, -0.13861205451296715, -0.13583988158598811, -0.153586579460556, -0.16955729845754838, -0.18244451296444575, -0.18446318444223458, -0.1474551568450318, -0.14429197405459065, -0.12659879238477773, -0.13172410841197793, -0.1698611895732639, -0.17439260536648957, -0.17765619556281648, -0.16932810265555034, -0.19026038840198148, -0.21635901819039674, -0.20862227888738483, -0.20021963433301634, -0.21402427678103075, -0.21545273883413346, -0.23213079434412306, -0.24869926252034977, -0.2389966125633216, -0.22249617937328497, -0.21602007530569578, -0.19005696942079903, -0.2118622953018798, -0.19949585498657996, -0.22694297397513877, -0.21020936592412362, -0.20651002477381106, -0.19342719146726686, -0.18087514853930894, -0.18540932733553875, -0.1705477146259857, -0.17718494088083514, -0.21153804448658242, -0.21541508063009454, -0.1934734705620866, -0.19517162773505983, -0.1619082170643638, -0.1584440728580371, -0.17864638342562641, -0.19934634601720153, -0.20073720177636925, -0.19646629077738303, -0.19463958737460882, -0.18051290788310154, -0.17540715211056038, -0.1796716172794961, -0.16006406434088966, -0.19657413461207324, -0.19973872274192644, -0.18014006760295873, -0.2246618379803491, -0.20588313366350933, -0.1965724797361436, -0.21735981679019417, -0.23921297609289355, -0.2707055232369644, -0.26832517686386664, -0.2815012832379808, -0.29242551537318606, -0.27643208650607, -0.29593959917137436, -0.3009505661870783, -0.28460145858925995, -0.27565489331031984, -0.251550508078612, -0.2501908018331627, -0.23407960647674103, -0.2365333518813836, -0.23265741116337071, -0.2285849041299098, -0.2550000574718404, -0.27656195981743464, -0.22707102475624544, -0.21158591931104137, -0.2548390243858885, -0.2867874477923966, -0.30620183957298963, -0.33078625656605204, -0.34259823717947885, -0.35229603677072, -0.3403465563879195, -0.3294955911001756, -0.32724803912760475, -0.33823426165833625, -0.3431042375048034, -0.3573679463556927, -0.35071329886488994, -0.3570058665731961, -0.3650389519476959, -0.33977316861422385, -0.3620673268398416, -0.3404925233927876, -0.3815806355437583, -0.40028419669690607, -0.37618150800768163, -0.3864413305522733, -0.3864081661260343, -0.37969314282230765, -0.3622497613648303, -0.35959189783900836, -0.3476574847406551, -0.3602584288605427, -0.3278819962167509, -0.32408186000886025, -0.33345469612945683, -0.3081466770353671, -0.36697592076553176, -0.3910030529599994, -0.4341866452274826, -0.4306683263767572, -0.4526178925913078, -0.4627222948386953, -0.5171964848387146, -0.49568739448967786, -0.5022256777781741, -0.48228870426438497, -0.47043666747755475, -0.48348672850547353, -0.46935522595982015, -0.450823009881142, -0.4739486579602622, -0.5091137564212352, -0.4789197216543174, -0.5095619597126202, -0.5210600887398955, -0.5155301243020296, -0.522190197261336, -0.5456151618730625]",True,0.8000,0.3000,0.5000,0.1000,0.2000,0.0100,2.0000
2,go,Hit,1,0.6200,"[0.0, -0.01193268602996099, 0.009365902969345065, -0.0030756279124150854, 0.0021976464754916627, -0.00020617949587912326, 0.01789458902407109, 0.0026765609425705786, 0.00829549453884678, 0.01121498894103913, 0.04180645460102261, 0.07171211386650639, 0.06707598663923366, 0.08642616747831555, 0.10872161388419005, 0.11564356953145329, 0.14682850380625545, 0.14867658932157135, 0.13866608987113846, 0.1581747313895206, 0.17208807631679204, 0.1837572067138388, 0.21396611521859574, 0.25306177569623994, 0.28081689406486526, 0.30378458493187555, 0.3044476163122606, 0.27965013478156125, 0.2673498280735651, 0.27196855054108415, 0.2915414872419202, 0.2860393669034177, 0.29097089226440287, 0.2916901198843431, 0.3163583987728181, 0.34053652593828493, 0.3641214605839344, 0.39265174787699325, 0.4255554223519974, 0.42664422734506635, 0.43245173183112506, 0.3860863439153354, 0.3759423818286378, 0.3847801904004404, 0.40080915213472756, 0.44586028084929114, 0.4562713115141052, 0.4775232746197833, 0.4901668409580052, 0.4676013898910085, 0.4624328835060766, 0.48583860075125757, 0.5100020073929487]",False,0.8000,0.3000,0.5000,0.1000,0.2000,0.0100,2.0000
3,go,Hit,1,0.6000,"[0.0, 0.03888845065475863, 0.07377342324501, 0.047374835234432706, 0.06349877821502231, 0.05460333741164903, 0.06325426532204782, 0.07031893318249505, 0.05674028013302884, 0.05099900832836099, 0.08670241434469192, 0.09073515676332736, 0.10089158140871597, 0.07065389750007953, 0.061484282784149455, 0.08358159889890646, 0.06269699632107939, 0.0771830378656823, 0.08482238010487897, 0.10692085541922805, 0.1392896315569266, 0.1536797642221934, 0.1578769046179363, 0.1740608245352467, 0.1923963811505573, 0.1666690598327685, 0.1666086011362898, 0.15063210115992223, 0.1626796513821608, 0.1632381479067456, 0.18831492429162933, 0.21654499442676575, 0.24458075989462738, 0.255951405042891, 0.24967795723297811, 0.25420784497448373, 0.2580899960323816, 0.30551963234836427, 0.3112760640440879, 0.3246535542018839, 0.3418074943786661, 0.3346288829628756, 0.3478454738317854, 0.3366302980412054, 0.3541230152437741, 0.3464060045495776, 0.394138975032847, 0.41795153876621227, 0.46108218551122593, 0.4978225021907686, 0.5213993045266863]",False,0.8000,0.3000,0.5000,0.1000,0.2000,0.0100,2.0000
4,go,Hit,1,0.6400,"[0.0, 0.040012583488538526, 0.03282029981901135, 0.07423517045819172, 0.07274854708440152, 0.10875778268400373, 0.10061313854749755, 0.08407213072909571, 0.09979740047577476, 0.12699401448727962, 0.1256871963846416, 0.13320144205279608, 0.14262372696920989, 0.14683414356005803, 0.14248127857652665, 0.19138599186720995, 0.20758997096571744, 0.21900551316426112, 0.22872002400388486, 0.24441892675349697, 0.25652532932268723, 0.2329989518075235, 0.2038243501459954, 0.2118694882212065, 0.26276827780897216, 0.28014354407390474, 0.29206348238289753, 0.3256640609630017, 0.3420111485529075, 0.3421657802511131, 0.37094062775180825, 0.39699806280446814, 0.4325626419052113, 0.4011408656098831, 0.3745199690017932, 0.3914578289466347, 0.3869995865646637, 0.34864224410680955, 0.32031780705406065, 0.3368289662137534, 0.3470445519641518, 0.3455474699669712, 0.3336593962022348, 0.35149182244686494, 0.3149220072692837, 0.3163304023336324, 0.35740513298651344, 0.3685942502511893, 0.36993576765391506, 0.41231073010787245, 0.45286150537273767, 0.46388819663774716, 0.4957449399933481, 0.4780020412709411, 0.5253732274281531]",False,0.8000,0.3000,0.5000,0.1000,0.2000,0.0100,2.0000
5,go,Hit,1,0.7000,"[0.0, 0.021891872797248434, 0.028735616967549053, 0.04054749272656007, 0.07723995144412626, 0.0666214954615495, 0.08226854015340918, 0.11375994321848336, 0.11812509837639731, 0.13105286327568383, 0.1394220099015811, 0.1340335167305747, 0.15681581146342763, 0.15337349983177426, 0.17058271447303638, 0.18174797952754962, 0.14101145364844808, 0.1718888620433906, 0.2004489147274387, 0.21719864130702318, 0.24103786071351227, 0.25523211040943544, 0.2475775236279306, 0.27504449384410856, 0.2926417963033512, 0.2751748034437544, 0.21608365294830423, 0.22476506384023234, 0.24013452041398997, 0.2438208446371257, 0.2759144392320802, 0.29930642580730693, 0.25899440667342594, 0.2736554478171804, 0.3012920649950884, 0.2982384741560723, 0.3108141288705176, 0.27374055768729233, 0.2844266639836044, 0.2949905550591408, 0.2570844808813369, 0.2778114109449844, 0.32474640713154135, 0.3255027512438065, 0.3733774070179223, 0.36813225755194495, 0.35510741799750734, 0.34642347991804334, 0.35108519039490277, 0.29893189107832435, 0.33786355623285713, 0.3621811705577069, 0.4071926427819122, 0.42063011892436175, 0.42450361736031106, 0.42436578499415756, 0.4545588523003291, 0.48032181109592714, 0.47942671590271435, 0.4866031136578093, 0.517206094689961]",False,0.8000,0.3000,0.5000,0.1000,0.2000,0.0100,2.0000
6,go,Hit,1,0.8000,"[0.0, 0.0032139296141888334, -0.005804750241649464, 0.005474140684559837, 0.01004519557234201, 0.01733724571600531, 0.023479324693923387, 0.05773193265749345, 0.05433502496632727, 0.043461267914496164, 0.08885246900537902, 0.09013526574883166, 0.11356863202604137, 0.10959199713110523, 0.10289505951552434, 0.10899871200799291, 0.11964949817276732, 0.10946989431586175, 0.10012224548929936, 0.09119852607648912, 0.08354617294770772, 0.07701393879997212, 0.09561223042740946, 0.09120006505001631, 0.11000988723793355, 0.129748476080733, 0.17473589258070604, 0.17350393895984992, 0.16910937909863288, 0.16434681945829, 0.15676052842375277, 0.15438260382998042, 0.17436789473266276, 0.18920718913354684, 0.19553079320204955, 0.18639024015756583, 0.2099822586045515, 0.2184453889591377, 0.2176078407997241, 0.25474056937102185, 0.27446586773800336, 0.28028683849863056, 0.3251088138091756, 0.31822763261122816, 0.3188714634646233, 0.3025363523080385, 0.2876089628918757, 0.3130142299619462, 0.31392303089253415, 0.32008967282969614, 0.3344424782397683, 0.3353571229763648, 0.3647160532589545, 0.3617798997793537, 0.3647922038474612, 0.36659611125285696, 0.3616530318831404, 0.34195326511212937, 0.36993323286811924, 0.38939087477949796, 0.39280604453547097, 0.3980305700158113, 0.4033694121752007, 0.3948729922897064, 0.3908696521711117, 0.4036526278463163, 0.4157331263231566, 0.42636958532725056, 0.4424464034894627, 0.47293246254943966, 0.5218229202828927]",False,0.8000,0.3000,0.5000,0.1000,0.2000,0.0100,2.0000
7,go,Hit,1,0.9400,"[0.0, 0.014821445712636615, 0.029643044453750912, 0.04526556632415969, 0.09006677431615759, 0.1374118709911023, 0.1581844217753118, 0.15238826324484117, 0.14779063984133628, 0.12737180067598297, 0.12445518620399772, 0.10243368288945114, 0.12002958578694456, 0.13504348618211598, 0.12967795950112415, 0.1029188776701201, 0.11149748808888359, 0.09486982864808978, 0.09312549729278306, 0.08945120800971804, 0.09720565332179754, 0.11507401558088137, 0.09777312540442776, 0.08009162204935118, 0.06420698322084718, 0.07601502171544608, 0.07917675381608838, 0.10785035528234899, 0.12639237909140438, 0.15413309235964207, 0.17266035488413342, 0.1612773277542035, 0.1920667645126524, 0.18669145461489542, 0.1537098040046463, 0.16715017123489473, 0.15572846987746933, 0.17645038096561605, 0.20136710282221976, 0.2153473754864061, 0.2154163217242339, 0.20631318684473815, 0.218256547675861, 0.23020540041086546, 0.22361910611676863, 0.27585001286545996, 0.31156416802459597, 0.33666707910096905, 0.333289398722217, 0.33867933749284823, 0.35844811856422243, 0.3512481150396579, 0.340344599227776, 0.39638656884819434, 0.41817917785403885, 0.4467194703103722, 0.48852876825273817, 0.4896520400388584, 0.4723589771448898, 0.4758613405419788, 0.4746308324416332, 0.4610975331384619, 0.454939191616247, 0.4360554096739601, 0.42519718801775247, 0.39205604456836973, 0.4027465673718745, 0.4076191519323052, 0.42726869492531944, 0.41163020202637884, 0.4324248039575106, 0.45246921015932845, 0.4543123012263208, 0.43019022643236654, 0.4450529479166353, 0.44085118578373694, 0.4417420179032312, 0.47993551090252085, 0.4646180476101151, 0.45039139112565674, 0.44404323076877894, 0.47528129472742536, 0.4830093183850613, 0.48441331262288595, 0.5267316800084233]",False,0.8000,0.3000,0.5000,0.1000,0.2000,0.0100,2.0000
8,nogo,Correct Rejection,0,2.0000,"[0.0, -0.02169426968000313, -0.01690379818833046, 0.0030823279862511217, -0.006162088085280362, -0.01220135374403426, -0.0021951597946461184, -0.004976649798512142, 0.004442624736634724, 0.0231992768482162, 0.02913721417305668, 0.03011555235842751, 0.05366628828311913, 0.0633062220420792, 0.08052900455503158, 0.08403607327812049, 0.07855693913595532, 0.09968745290814755, 0.08330156304218592, 0.08103963043944433, 0.09333725026889676, 0.09860141608219505, 0.08356736065315543, 0.12502308441727647, 0.13284353847325775, 0.09733793973995125, 0.06585292917278372, 0.06437991441776196, 0.06553440460532044, 0.04856979127386954, 0.02911788055139395, 0.053482335897767894, 0.07860732801963263, 0.07406516441898833, 0.07490171984603043, 0.07180298984561843, 0.06744495273034283, 0.09138325699293769, 0.06648264846320158, 0.05783976034364546, 0.06555519324836767, 0.07490349059459865, 0.10073812403236834, 0.09942466474334016, 0.09056802359838384, 0.0885722624267862, 0.07343555995349098, 0.05693682068852844, 0.049144741613275124, 0.06842508009861613, 0.07346601438884322, 0.08953022691639032, 0.10739431885295941, 0.09974565070199258, 0.08192423547050023, 0.06847903950350621, 0.050781005670408386, 0.06468410881083728, 0.07464478733449946, 0.0900115678536928, 0.13271803572967056, 0.15409128662338809, 0.18201999051361742, 0.155830266845471, 0.13213559756395976, 0.14207541656299044, 0.14728949813539302, 0.15072808135885052, 0.16455078713248444, 0.1748250805368548, 0.20904028277672249, 0.1466516318726082, 0.13109364694864284, 0.14788445816583157, 0.17023706861657265, 0.20679333686404325, 0.21601479033861082, 0.21238560575689544, 0.21374415422862958, 0.21080235706383932, 0.20728399606726858, 0.18638969181807907, 0.18311480386951365, 0.17322685898338827, 0.16565408189057254, 0.20960831913804517, 0.19956764762033175, 0.18680940125903267, 0.13430106778189305, 0.15547490491080052, 0.16287276425729086, 0.18216181026525538, 0.16189932921121702, 0.13814354534924134, 0.12178890102486664, 0.14629223263765426, 0.15259329411964914, 0.16259813003940063, 0.1748091257337049, 0.1752526917490969, 0.1640101253735156, 0.1283661216240028, 0.13658127761915745, 0.13521121549837317, 0.1385259226828767, 0.11121572744331795, 0.134452680645244, 0.1366605278192644, 0.13930081649207376, 0.14059964781242937, 0.13886973777215292, 0.13594474547064866, 0.11219385056356368, 0.1233109934931003, 0.09930381279058192, 0.06326228276703164, 0.07775537630159643, 0.06501393909330495, 0.08288993634172555, 0.08557150809988978, 0.07596124506709023, 0.08993457979436523, 0.09769627952167044, 0.09136788696402945, 0.07775750471601015, 0.05486094847936246, 0.044997931876714144, 0.05961946773649136, 0.06087506622314219, 0.08011698174965379, 0.08588952549737014, 0.0633638416287503, 0.05422344345550433, 0.04410349988207601, 0.0787507889996506, 0.08023048035817479, 0.12632504073746018, 0.10444956209431908, 0.12122732908142063, 0.12593243439352092, 0.09818291717969932, 0.12735183333601913, 0.0869045897925822, 0.08281811657156431, 0.06448382003287223, 0.09068435148709408, 0.06994287402263533, 0.07055352328786993, 0.05449736441907056, 0.029807979968358937, 0.015067567927556761, 0.026550117968438803, 0.06647600681352792, 0.09043566011878536, 0.09507812382648088, 0.07095914773270727, 0.07374531228186736, 0.0817327969712177, 0.06681867847332272, 0.08191560239026952, 0.06953816930392342, 0.06695847546090852, 0.07016600951311466, 0.06883333549638904, 0.041640796677982275, 0.07694481498127949, 0.0707973392836085, 0.07739936649965443, 0.0725276659230858, 0.07114338522127744, 0.06022012989430906, 0.051247136422051316, 0.03458110197663428, 0.04326793500577572, 0.07168794089019513, 0.09148365787670662, 0.06539730810541024, 0.06780885056757446, 0.09159129532326081, 0.1220925033204715, 0.12130433139712021, 0.12090328233097092, 0.10785775247264949, 0.10735704017455447, 0.1534714001077977, 0.17609903558865025, 0.15910959424755008, 0.1362850127068984, 0.14836217901782636, 0.1388829770555648, 0.10203852034416316]",True,0.8000,0.3000,0.5000,0.1000,0.2000,0.0100,2.0000
9,go,Hit,1,0.8600,"[0.0, -0.026440542306633223, -0.03818929551830828, -0.03886188921920178, -0.029583644914731904, -0.038062420621869805, -0.03650900816848169, -0.016305108741759167, 0.007519103503748084, 0.001423101293987589, 0.03398539095503333, 0.022499361800025194, 0.016042894338768987, 0.024698850929287523, 0.05794916122819758, 0.07420957082847499, 0.045939466696540546, 0.07345890725683538, 0.05306448089973458, 0.10466309832877, 0.11905372853595478, 0.13152900254281727, 0.1441030544265993, 0.13130110532648334, 0.16166940647177636, 0.1821788568432621, 0.1829814828637555, 0.21728547328719372, 0.20922662800482053, 0.2548692001396699, 0.2607350083112905, 0.2989454237887211, 0.3153243652521719, 0.32659806086344834, 0.35907327626447905, 0.3351845700644652, 0.34639520600392787, 0.3181799122994031, 0.35489335745147016, 0.3463829686264228, 0.33885352290335263, 0.3396373080409578, 0.34688218364969226, 0.33309698165100343, 0.3122943267172413, 0.32696433968065397, 0.33655060070378956, 0.34960257097572534, 0.3505835499799888, 0.35903722677796435, 0.3541180642944307, 0.34231193160812545, 0.32513482799588056, 0.3327714593474798, 0.3394011842805029, 0.3234466821198237, 0.34203978086302816, 0.3418507318314977, 0.3705666997757167, 0.3849248281126817, 0.3817587732022332, 0.3809369129494544, 0.3852927465779751, 0.38134729898495173, 0.3661732840904447, 0.3953648359993625, 0.41564719151835966, 0.4188476646575995, 0.40527989685704524, 0.41342762086151025, 0.4410338439617665, 0.4944395280569146, 0.4867772440724419, 0.4934303652514448, 0.49882970853375685, 0.48506368990393167, 0.5034493374962117]",False,0.8000,0.3000,0.5000,0.1000,0.2000,0.0100,2.0000
10,go,Hit,1,0.6100,"[0.0, 0.03142240607069159, 0.06759052718491344, 0.08525608720280428, 0.10439658752809264, 0.11555685392742564, 0.1501286777589707, 0.17113873143229463, 0.17413230027686488, 0.19564848639822827, 0.18798890831764553, 0.19604627786714562, 0.24182230911464633, 0.26013275240067774, 0.2909498263531529, 0.307631764118679, 0.32824649549134655, 0.36278563709535216, 0.3482880031922689, 0.34665478757248613, 0.32658121152470276, 0.3414388535374881, 0.34877431383306834, 0.35362207377954463, 0.36708267750051604, 0.35055953004155893, 0.3400163283630303, 0.34385625858076924, 0.36181178332188263, 0.39957237619729497, 0.3874188573325873, 0.42295932594099717, 0.43295332522942354, 0.398099203957392, 0.3939580643833678, 0.36613135235084937, 0.37607690481989875, 0.3643958463945616, 0.3948190714176598, 0.3914944915553309, 0.38555274081247415, 0.3565466053093206, 0.36678257766387157, 0.36655522555643844, 0.3810952294360564, 0.39867291390253956, 0.42284208132779094, 0.43316262582298587, 0.4632837478061711, 0.4439553744210254, 0.46888559196827717, 0.5227034425735269]",False,0.8000,0.3000,0.5000,0.1000,0.2000,0.0100,2.0000
11,go,Hit,1,0.9500,"[0.0, -0.011617021745733872, -0.020938264974836824, -0.00873521673373826, 0.003263470490914069, 0.010628037117248438, 0.03908777356668536, 0.05373883218452499, 0.05602219273381914, 0.06761557085298806, 0.10102065230253565, 0.0960556382536957, 0.095512556304626, 0.09010916404661637, 0.11953555511271532, 0.15163726336552064, 0.17213954236227794, 0.21498721795631, 0.24882032385764732, 0.26800394436889946, 0.2728711321870468, 0.265233667935801, 0.26835578027313467, 0.301683025686841, 0.3022025370040078, 0.27622131631396873, 0.2653344880049455, 0.2589321587884398, 0.24906642598833442, 0.24625185729805688, 0.2767733818237692, 0.27330758775830727, 0.26811248889384903, 0.26809183020083005, 0.2657877521641646, 0.24030171758529034, 0.2522250824202738, 0.27381429359116816, 0.26736604645912787, 0.2770267197395638, 0.2879808528868414, 0.31339352654540026, 0.3277262403201869, 0.3294675135022142, 0.3345999773676498, 0.3178115910975086, 0.3046814143937528, 0.34013539457183284, 0.3398135148476752, 0.31541904880067384, 0.3238745325540893, 0.3209717480715956, 0.3025221867684986, 0.3151899249447635, 0.3134849020559962, 0.3345995609328797, 0.35168751487390004, 0.3285968416955143, 0.3641165194931522, 0.3906735330641699, 0.3793786189406834, 0.3732205215926358, 0.35639069717925925, 0.3589280486441577, 0.3664886772999494, 0.39276378555934394, 0.37845516982048844, 0.41211425610202534, 0.4129305680945317, 0.40860640154241995, 0.37359199369404017, 0.3818061510185281, 0.37551211320728856, 0.3650133652372096, 0.3695490084537917, 0.3926387662604895, 0.42839286796636505, 0.45175046279905123, 0.44726148563562707, 0.46259571140676736, 0.46137336015377894, 0.4623282444472226, 0.46176571137217837, 0.4843522755866339, 0.48654893592610055, 0.5130399698715478]",False,0.8000,0.3000,0.5000,0.1000,0.2000,0.0100,2.0000
12,go,Hit,1,0.6700,"[0.0, -0.017893787946150774, -0.005725896526728058, -0.0036931922854045287, 0.0006759686153394399, 0.03815550617553455, 0.0018813342491684967, 0.0009462840091677208, -0.0014812041351732457, 0.020725488199270913, 0.012884036761643358, 0.019615222917241444, 0.011602995582505007, -0.011654197847431692, -0.006839738580919073, 0.0013505265807946948, -0.028362751155981032, -0.03140060690952495, -0.002876923687832645, 0.007373621592973976, 0.003871434091512447, 0.00462882253991808, 0.016725367807498486, 0.03621194939397138, 0.02110819818740204, 0.03899288351138534, 0.05877030403608267, 0.08192548549583624, 0.13431366243381487, 0.15394247386187765, 0.16338999792821335, 0.18376610140451935, 0.200839936858721, 0.23629672693991804, 0.2169473722861887, 0.22856554003162455, 0.21128333549970824, 0.23300495974281688, 0.24786479130154226, 0.24274923513893168, 0.27139350358554726, 0.28516087319602074, 0.3156447729736822, 0.3384148964246591, 0.34482556856425317, 0.34155276068505697, 0.33524928271126836, 0.3574204569335674, 0.3438759472050595, 0.3620038951260783, 0.3707673056754991, 0.37554203690911114, 0.3583727735162087, 0.4036698957550203, 0.4229227582314207, 0.44169987490440216, 0.48083247975208604, 0.5167656871970242]",False,0.8000,0.3000,0.5000,0.1000,0.2000,0.0100,2.0000
13,nogo,Correct Rejection,0,2.0000,"[0.0, 0.0013658159339482068, 0.0017130737579104031, 0.04401468924195282, -0.00492798632614927, -0.02997298853558396, -0.024663706092664203, -0.0221575229996349, -0.05068521041611915, -0.057857472902684226, -0.06451158407847092, -0.07801671618733991, -0.06393591982427833, -0.06720204457101601, -0.0735266464221441, -0.08767725652358999, -0.09556538937100555, -0.06672517313587917, -0.040157598215997056, -0.035032036978520906, -0.013670431383893188, -0.01842327023171822, -0.056498319990324175, -0.047850453148131855, -0.005033503315065371, -0.022091438224224814, -0.03390874357352298, -0.018599241223871632, -0.012808036553034564, -0.004554730769300162, -0.02582931974261246, -0.048660498440165775, -0.04952210823330841, -0.04383238665465933, -0.08176086284988712, -0.08927473418054854, -0.10876838893909332, -0.12145296015110846, -0.13651569568540017, -0.16343355201842436, -0.2071819077745179, -0.21860590643736383, -0.19224423926134923, -0.18859554243390442, -0.1900427360381976, -0.1953373433833043, -0.2038197311480709, -0.18046619599432145, -0.17008228622070004, -0.16832894638946896, -0.15266246754321328, -0.1715686063007227, -0.19141634030215193, -0.19059821354255557, -0.1718603552927416, -0.13353719607031175, -0.1547001636238117, -0.15674435237164544, -0.13493610374076803, -0.10367337603566433, -0.10751173877184389, -0.10313447401782812, -0.13161525760435325, -0.13731357373452355, -0.12180317713836486, -0.14120070696230871, -0.12097207997706004, -0.09066935383358482, -0.08288935139785794, -0.0673297453718576, -0.08505595791774855, -0.10933877986199336, -0.14967335288779457, -0.13553771150159222, -0.1141245804589547, -0.12616372403858142, -0.12674359391897552, -0.12913929090685433, -0.1462366369291231, -0.19106561024876162, -0.21667743995674252, -0.19711754383772018, -0.19987308681720112, -0.19800617668783546, -0.20751366371945876, -0.1850722788006688, -0.15308596905828697, -0.13988649899200517, -0.1856057487062392, -0.20592944475058655, -0.19662701154841922, -0.18913794987545082, -0.20033696206289173, -0.17979870142568602, -0.18929184757271986, -0.1662868035233971, -0.14934067953485214, -0.12263209665234898, -0.11783638611320725, -0.08812777679309786, -0.10487808175811178, -0.09694112271473278, -0.1092763475366266, -0.11987225661085618, -0.07862780413108958, -0.08620942847853655, -0.0998664648191726, -0.08605910711114974, -0.07528409510016612, -0.04964583945536404, -0.0024014252063133887, -0.004862245297259526, -0.007609775980812359, -0.015677850305938285, 0.004165150224071077, -0.020688311677842745, -0.021270415511116976, -0.006927083029925785, -0.037122609171815445, -0.04771734068362539, -0.027816224995955274, -0.008199443748185743, -0.02568308633810893, -0.03420720489006007, -0.0026978221761601445, 0.004564455113542624, 0.00626253267710454, 0.006098887973872124, 0.012132283558907858, 0.0009887063987530607, -0.026080758998720817, -0.02573707147043918, -0.02180475394183517, -0.06794355142546459, -0.10029111376224781, -0.1324440267735548, -0.105654089419226, -0.08448659022618926, -0.09088001780296397, -0.0884250354774117, -0.09324477107174875, -0.08337181712570882, -0.10734670408203423, -0.10568061904646295, -0.09684196594013142, -0.11342430041946144, -0.11472818238911744, -0.13051584927142437, -0.14280152965548798, -0.11717832591444177, -0.13216282610580554, -0.13951315332353723, -0.11819080608114407, -0.13044942766675546, -0.12342290080792778, -0.11228568590999785, -0.08849370116437026, -0.12480217555575249, -0.13009753044668607, -0.11524247487023415, -0.10494222159702454, -0.09240018334205347, -0.11691936171636923, -0.1316752464739699, -0.1258072413574632, -0.15187326817922797, -0.177746413966201, -0.21161803681622737, -0.2205497674465039, -0.17678518341084748, -0.18166212932162587, -0.16823704265523837, -0.1857132179550279, -0.18203327466942507, -0.17994372615375803, -0.18108504172238418, -0.201320722638868, -0.2144267694906638, -0.22145887233471678, -0.22780296231587183, -0.22470550433077283, -0.19000979279250332, -0.20156599915919254, -0.194654227425357, -0.19330377589032452, -0.17738053348852315, -0.18119674881482498, -0.21963743701148422, -0.2440584880499063, -0.23310220732832887, -0.23541547608654495]",True,0.8000,0.3000,0.5000,0.1000,0.2000,0.0100,2.0000
14,go,Hit,1,0.6900,"[0.0, 0.03649823271286196, 0.07051718831239114, 0.06875090286408642, 0.067919163486106, 0.08425009190850763, 0.11383433950731908, 0.12654928611941504, 0.12632891204199756, 0.12741058119340287, 0.13584478044092557, 0.1598106773807891, 0.15750247418752159, 0.189575544178008, 0.183545609458784, 0.1762610795545081, 0.19267295511105242, 0.21370339910513708, 0.21226785423960723, 0.25716236160995404, 0.2679373324985871, 0.2696369576169692, 0.25831822659261233, 0.24878568914102023, 0.2654864703238013, 0.27766696693100085, 0.3049655483426742, 0.3165150655092799, 0.32421789959417197, 0.35044880993588956, 0.3360398532972519, 0.338786776234833, 0.32903149516373553, 0.33671335734377955, 0.3554805483240193, 0.3600883443156827, 0.35706206974606286, 0.3590073011466056, 0.3780881057354074, 0.3629430079310778, 0.3780938279719398, 0.37169370948596125, 0.3877875642294901, 0.34271108438311315, 0.3518939184578153, 0.3527602771441957, 0.34787739061605844, 0.3433907188595974, 0.3562779154914486, 0.35861649032216103, 0.35281846793810157, 0.33463523652963434, 0.35506271236581366, 0.38615499066830183, 0.3787662968549744, 0.37632256325812197, 0.4258331247228911, 0.4499501478574494, 0.46005328422486835, 0.5016326402591041]",False,0.8000,0.3000,0.5000,0.1000,0.2000,0.0100,2.0000
15,go,Hit,1,0.5900,"[0.0, 0.008540178565289802, 0.02481078385040411, 0.0036279549545185294, 0.042553222843667096, 0.06603504846849799, 0.05883342357835543, 0.056111312350519804, 0.06535568556434178, 0.0751533659697076, 0.09370710172770941, 0.09792499752533418, 0.126047510630803, 0.12209387283466326, 0.15290923078706842, 0.1935674640690695, 0.2083443961677453, 0.20488005570683027, 0.22324822821141002, 0.2342541993134725, 0.2388987265759892, 0.23430747613696196, 0.24561672612789168, 0.25019300167499015, 0.2733581840183099, 0.2756269479768612, 0.28478211938227355, 0.28117335265670473, 0.30890591058019057, 0.3420998277974115, 0.3550616722056569, 0.36422054541295407, 0.3817114714362366, 0.4056559341312437, 0.40373659521405597, 0.4168766193044686, 0.4200909732611602, 0.40715291138701054, 0.4172502804133227, 0.412775207290235, 0.3966293861316891, 0.37322018736766066, 0.3865761256124251, 0.4069780745132887, 0.41960814261388285, 0.44861859881679567, 0.4479886312946453, 0.45277221648744453, 0.4870695986880547, 0.5221622840726559]",False,0.8000,0.3000,0.5000,0.1000,0.2000,0.0100,2.0000
16,go,Hit,1,0.6000,"[0.0, 0.0034015687539033787, 0.018638211920544864, 0.05898396631503331, 0.06866184420382271, 0.06975133980928817, 0.06487194358957123, 0.06658637198643783, 0.04658098787637766, 0.056611865464300096, 0.08200777913357829, 0.11606852633200275, 0.14112846237205107, 0.15885053517077466, 0.22556718197554965, 0.2646785650800697, 0.26466672307520633, 0.2641375287769451, 0.3285538686600399, 0.3284132390483018, 0.2953644969601968, 0.285955295640774, 0.3390726472155474, 0.31758436512787946, 0.306240415053069, 0.30881131555406477, 0.3065596540514105, 0.34711286907210315, 0.34356683117580855, 0.32796534567840696, 0.3449913036342866, 0.33211494323002133, 0.34085651825350827, 0.35515420874901676, 0.35497457879182265, 0.358357793857334, 0.3630541318208425, 0.38767771451835553, 0.3725673171583668, 0.37128252846656096, 0.39930582052608943, 0.4259272238650569, 0.4150025827940859, 0.4369785633766946, 0.4445161957616335, 0.43410594239835565, 0.4236115458028637, 0.4454991152558222, 0.454145224463525, 0.4732564298157326, 0.5024658107008615]",False,0.8000,0.3000,0.5000,0.1000,0.2000,0.0100,2.0000
17,nogo,Correct Rejection,0,2.0000,"[0.0, -0.001746267344563778, -0.05838708182574586, -0.056173904672809055, -0.004211922783591539, -0.013087851210191633, -0.04280204448905779, -0.03363696963172456, -0.0477190889619695, -0.08164031930414488, -0.08094017663440209, -0.08600296107315872, -0.05115122763427786, -0.044539208123583994, -0.04107286621892507, -0.028705051943135947, -0.052370248529824345, -0.031695220586033836, -0.04723413011904158, -0.05101416909723341, -0.07499054978946434, -0.04970628377257512, -0.03808985202592913, -0.05263307120629493, -0.045747589350162966, -0.04353740699683651, -0.01583152238681572, -0.014972591120375793, -0.017952785813763198, -0.02534800097026458, -0.059109824226111746, -0.07032970500758842, -0.03732026372615075, -0.07931051679201606, -0.11307158640099407, -0.10648780073872752, -0.1500889692315886, -0.16183748460826505, -0.1292090509284799, -0.13697856685747845, -0.17315480800058602, -0.1885199377342584, -0.21708588026252718, -0.27329350351761006, -0.29315683086592537, -0.3297203946041917, -0.32094100593545694, -0.3030747068248241, -0.31806544858629276, -0.289928311515155, -0.27834286498664396, -0.2959542697497859, -0.291461495071096, -0.30994354068853674, -0.30711332463263596, -0.34472859573433773, -0.35093511852572074, -0.3338140209480367, -0.33264805063965897, -0.3121014599824276, -0.2953197405388002, -0.3340945014286026, -0.3293837633149029, -0.34452603127659187, -0.3397485105229799, -0.3444189265496795, -0.36095703242031624, -0.35259786125070547, -0.332291759878865, -0.3298875249381827, -0.3260140185021513, -0.2920824609194092, -0.2933311579095666, -0.30856845960830837, -0.3431484195419989, -0.3771563060183728, -0.36788283059233173, -0.3835939037881001, -0.4015888932221932, -0.4078700965625481, -0.4201275800704136, -0.42454175118228177, -0.3986886565889989, -0.39061057368061125, -0.3781507662119777, -0.3823440314669585, -0.3732948385923012, -0.3817737296657007, -0.39665805446665, -0.3870458468742978, -0.40241308041922935, -0.4228744768194995, -0.43222952230722034, -0.4321629964465824, -0.4470996957542178, -0.47139952854034683, -0.44322296505793496, -0.41934935193318823, -0.4350159028487651, -0.4443920689926295, -0.45898612807066885, -0.4896433797047524, -0.4814705009346061, -0.49916420381688886, -0.5093810648830464, -0.4769848690468274, -0.44881224565953537, -0.4604907792105707, -0.4894620496909642, -0.4815005235955408, -0.4862745068355513, -0.47221810379739965, -0.4693984290186224, -0.4374121746688444, -0.4365540066994826, -0.43910438873200397, -0.45127490646638285, -0.4541043021033186, -0.4513800413098251, -0.44590157052610413, -0.43857841991895846, -0.4253130941794335, -0.42144095974619405, -0.44606902950800864, -0.4215684405694226, -0.4260127367772967, -0.4089003838639757, -0.4327623285897399, -0.45951677792202617, -0.4769805998595395, -0.481443722808404, -0.4732824288089392, -0.4770085691552227, -0.4770281961527845, -0.4752749322131829, -0.46240873737824173, -0.4557449071836304, -0.4886221653165535, -0.5416671091179955, -0.5526535251518224, -0.5591517824531603, -0.5410217569003598, -0.5438381110232675, -0.5181705283918093, -0.5218067665566908, -0.5071879202727938, -0.5069995384616234, -0.4856482894190881, -0.48647254229374964, -0.445857777574438, -0.47271764723710596, -0.45060985904369727, -0.4290021073726183, -0.4412358105080092, -0.4374853222341366, -0.4112742338309813, -0.41903323601649867, -0.39237786226388127, -0.40257516551015116, -0.37879454906895443, -0.43790013140000544, -0.42851353893796207, -0.44190648454408904, -0.49354067306757143, -0.47926140619349417, -0.45269536802221383, -0.4556954375809207, -0.44632440057802775, -0.47266121739602496, -0.4549160990270537, -0.4879432521730205, -0.5095895545347767, -0.4929001884324761, -0.49430083683491066, -0.511697385847835, -0.5011894089865498, -0.48994205712319744, -0.4765985781000404, -0.4944857160776343, -0.48962846732896625, -0.5476821985636083, -0.5733173304401902, -0.6151089950860275, -0.6427782204515067, -0.664894558616972, -0.656410608818861, -0.6545816287950899, -0.631205864781439, -0.6126917917559981, -0.6019352318718202, -0.6240087756859115]",True,0.8000,0.3000,0.5000,0.1000,0.2000,0.0100,2.0000
18,go,Hit,1,0.7600,"[0.0, 0.028636847330552516, 0.04047537508612701, 0.0716153379357335, 0.09104683669105992, 0.08443841380316523, 0.11037528999007853, 0.11060287796914592, 0.12140364938705167, 0.16143461663968722, 0.14269082011495465, 0.15389549185735135, 0.14245941615797383, 0.1659664349607693, 0.18690451667350338, 0.1765663227363644, 0.20820465364626367, 0.21757070394565448, 0.218253814293743, 0.2317231678570519, 0.217812374929278, 0.2128838861554543, 0.17577043102722922, 0.1845724543825244, 0.2042831366945424, 0.19516013332719484, 0.2008305019799637, 0.2201897276094469, 0.2614758845012087, 0.24136313309400206, 0.23724149524906324, 0.247820651527664, 0.29071498177914246, 0.2609280875799224, 0.24005304316588794, 0.24461159107607852, 0.24686680557198973, 0.22094555759407075, 0.19055836447772917, 0.17989049772845928, 0.17477522002162738, 0.16268791285753847, 0.21973533134044104, 0.21796992682492264, 0.1973135046144154, 0.23946956927507046, 0.25876233754286576, 0.2669460075653003, 0.30857442993858925, 0.3208695153982437, 0.3100753536201891, 0.3394766122036785, 0.370602086479966, 0.38322117408699213, 0.37430096752303316, 0.37846521664828936, 0.3743374598801365, 0.3986848446984219, 0.4214124990225901, 0.4021807275334885, 0.4135886902863821, 0.4403038241099463, 0.4595180904641542, 0.47360944775807456, 0.48281161147165996, 0.4975586564124075, 0.5428425977734871]",False,0.8000,0.3000,0.5000,0.1000,0.2000,0.0100,2.0000
19,go,Hit,1,0.4900,"[0.0, 0.03177080398404153, 0.026193783749306365, 0.05403039135371211, 0.0894052201822015, 0.08578054160687199, 0.053979895449585605, 0.09949979457294342, 0.15360365704789938, 0.1480653646689981, 0.1855639305714703, 0.16252698518751607, 0.18351661173090755, 0.18686073572274764, 0.22484160757277008, 0.25657453220302506, 0.24713124061997555, 0.22938852574845836, 0.23886612805760118, 0.21602402886935637, 0.2335436328176355, 0.2582126561794424, 0.2922871764125623, 0.29693178158798117, 0.2850963180942863, 0.2866124997455085, 0.31821104554219704, 0.3372571679040737, 0.36943082272405126, 0.39620388813241714, 0.40460907310027067, 0.4093847189478982, 0.43931890439765425, 0.4061530962409137, 0.422611598179753, 0.4670374405182261, 0.4297614330503214, 0.448143059073646, 0.4422136737727215, 0.5099324385622273]",False,0.8000,0.3000,0.5000,0.1000,0.2000,0.0100,2.0000
20,go,Hit,1,1.2200,"[0.0, -0.018660625854438086, -0.023677404675584202, -0.024949704112356995, -0.025651089477774468, -0.023728615345280167, -0.007861673977163731, 0.010115474588632073, 0.02693147498047998, -0.0023089616886802153, 0.013202915043505896, -0.02401408286934307, -0.036807862226517496, -0.03994593403781447, -0.042615213847469594, -0.01859757750819911, -0.009584024611048047, 0.004471069775301822, 0.035467334869898955, 0.06989106907199275, 0.10970719774986695, 0.09273534777337042, 0.0715809985816814, 0.10086347925209284, 0.10977601700256022, 0.1164541074126534, 0.1306672380809338, 0.11442605714471367, 0.13484825852287718, 0.1365816363084591, 0.1472797897034918, 0.19812093069927716, 0.1657773271477888, 0.18340940544175013, 0.18360994012711296, 0.1745140256531084, 0.1482654221965855, 0.13672567676903688, 0.15152367989808407, 0.14863135262824048, 0.14277655006753764, 0.18144521597367305, 0.21393062135125834, 0.19855049607537173, 0.18929964120614057, 0.21409352050442476, 0.2629035131403007, 0.26343442484130747, 0.2804018968516716, 0.30460885779944785, 0.2866523433078855, 0.28842687938687894, 0.2719617490179862, 0.2726282846953027, 0.26144557300340904, 0.29027361372353433, 0.3309794483309491, 0.32435183348562013, 0.3351400213871598, 0.3487518435116547, 0.3516251774956263, 0.34787352506271935, 0.3425671073433306, 0.3635962413118665, 0.3540266772096728, 0.35605990482069894, 0.36136285048987793, 0.3294762616123571, 0.2923464160734252, 0.3048703738974242, 0.302575560185422, 0.31372738775544307, 0.31695415306435964, 0.3053806319250346, 0.3078000418552975, 0.28487265426843605, 0.25837679276726033, 0.30138126914101443, 0.31130573631883485, 0.32496126516643614, 0.29775263489662407, 0.3159237724288787, 0.33262263875718795, 0.34125394013024885, 0.3650582201898174, 0.35529025076249476, 0.3773022523227043, 0.38197888131288793, 0.3806757064602299, 0.35299728984898027, 0.3825943779203776, 0.405654264806861, 0.36480527605556645, 0.3632742154275825, 0.3770846652542005, 0.36101671895798904, 0.36325916316381174, 0.39355040186687085, 0.421348339216163, 0.4015151368209288, 0.40933971222295645, 0.41914913081105265, 0.41354944752927, 0.40401213675818426, 0.38983317142341095, 0.4034167745310052, 0.4136997341603331, 0.40927028947687105, 0.40910133678514743, 0.42635500844683977, 0.46061958545302567, 0.4647481737204146, 0.5089437304726384]",False,0.8000,0.3000,0.5000,0.1000,0.2000,0.0100,2.0000
21,nogo,Correct Rejection,0,2.0000,"[0.0, 0.005362410691750274, -0.016277491674874175, 0.02423318660950241, 0.0328975122218535, 0.012650977113440189, 0.01860357084060263, 0.006452653254388187, 0.03456956103987964, -0.009962089553048413, -0.006623530956300498, -0.006823809948308822, -0.015966030169049964, -0.04460050820471172, -0.06231219871407444, -0.08355781003540344, -0.09263311935157621, -0.094128958019684, -0.08605467441705894, -0.12244887266281057, -0.10488989470414227, -0.11726636265039125, -0.10687266569863889, -0.11100161347441627, -0.13290721567638986, -0.14626333282386453, -0.10960714673579146, -0.10673644847257795, -0.08196696738012879, -0.10671310056801832, -0.11842879799217022, -0.1324577458912088, -0.14386404357982996, -0.14713656144844814, -0.14731872232872356, -0.12356623120050277, -0.11077876075367872, -0.12701824667739753, -0.10975822270972166, -0.14032935912290095, -0.11191525233782647, -0.10496312971957837, -0.11811614932525785, -0.1251410265841702, -0.10522509211051688, -0.06431680361320924, -0.07965554637757397, -0.10037356179760844, -0.1108261156423799, -0.10493634505325306, -0.10706919525451279, -0.0998292350226854, -0.11983362403358676, -0.1229088766836185, -0.15370250463045076, -0.18442808758795562, -0.1893851793651756, -0.1869203840623172, -0.1608235977118819, -0.18731878407674302, -0.16253535990364693, -0.1540913358621689, -0.11870382813265073, -0.1133313628592376, -0.1295943667979254, -0.08617717167873823, -0.09480366218462338, -0.06740872746410369, -0.07749657900218312, -0.09392707199385127, -0.09286034749582936, -0.08830146835149258, -0.08904174751745776, -0.09353241802518628, -0.08200403685666105, -0.09433572260678483, -0.09511213662956952, -0.10077061439541773, -0.10504204276800844, -0.13350854912702262, -0.13780876702457814, -0.11932192437940262, -0.10203496985869376, -0.1294928870430966, -0.129025854688408, -0.1182082341193195, -0.07282542632181625, -0.04604753150787841, -0.0762622783578146, -0.11217779148204168, -0.10879726959897168, -0.12113262929433054, -0.1235612984047034, -0.15990060001802894, -0.13426078283367537, -0.14633642349043557, -0.1005863576932024, -0.12942941676427058, -0.15011325473911108, -0.14698108416879982, -0.13938888341706365, -0.14700222751178912, -0.14626387653097878, -0.1518504450268733, -0.14782182335330227, -0.14293157300736167, -0.10589938751303617, -0.09720707485508306, -0.14178295922570205, -0.09967776189792452, -0.1058903726075926, -0.08805292407085624, -0.08238583965625718, -0.06965335781220693, -0.05836159358015653, -0.038992400920511774, -0.050708588794904, -0.05269295193253498, -0.06825838897700702, -0.06052962150133606, -0.06425891573709268, -0.0382037080976578, -0.05988698714568227, -0.11372695923014478, -0.14529011491614036, -0.1662471566725118, -0.14356251957840935, -0.12201577597755503, -0.11527807819324769, -0.1185750147047284, -0.13079179665898466, -0.15105265742523086, -0.16390767046481972, -0.1673192138621468, -0.15615750573752185, -0.1384379185850742, -0.16642239827796057, -0.19252859577625323, -0.2153239729494137, -0.23707752910013097, -0.24589746055887757, -0.24298143419636306, -0.2504824770013031, -0.2430257805650637, -0.2278251185993443, -0.20608068941848603, -0.2095410514053815, -0.21186343860674536, -0.21965151184575626, -0.2244291902404979, -0.19675511195713954, -0.19186904917784364, -0.22897907166573192, -0.20305798739377298, -0.22038732676933007, -0.20442547803605568, -0.1984008188662303, -0.20866542289922346, -0.20788773846905553, -0.19437233262662296, -0.18772256728199993, -0.1959872222368777, -0.19077939427464186, -0.1650651483869871, -0.1704156674286824, -0.1771411297147726, -0.20665331517393765, -0.18707987754724184, -0.17529991734224082, -0.13301441587424034, -0.141698005909647, -0.14122884707765432, -0.14537602162974583, -0.15147045502897583, -0.15341132527881518, -0.19301832685255313, -0.18845809328255939, -0.16447829833897182, -0.19839501429866288, -0.19200158231553874, -0.19995498967556408, -0.1736284336666516, -0.20479642470315165, -0.203979601569761, -0.2419575961241295, -0.2341534689220892, -0.2127497481983732, -0.2135200825856565, -0.20713436774575353, -0.1791627370332089, -0.18233958045923862]",True,0.8000,0.3000,0.5000,0.1000,0.2000,0.0100,2.0000
22,go,Hit,1,0.8500,"[0.0, 0.042596557306745345, 0.045411997669279835, 0.023789442156154625, 0.057940060269612445, 0.07455468837737544, 0.09051370026775127, 0.10842806350065326, 0.10559467929323545, 0.11454250639662561, 0.10918950081136772, 0.11593039850175597, 0.11021138149209594, 0.1334784719959926, 0.17112895723369226, 0.16892788055886232, 0.17448017212408046, 0.2016645640373618, 0.19375943706419033, 0.22806820138055717, 0.22289828514486454, 0.24798813807343875, 0.2865561295557453, 0.31348029093143526, 0.3293648266484918, 0.3485450048506862, 0.35563788949427094, 0.3545786046798346, 0.37289363470359477, 0.3809455913683472, 0.3840767844792341, 0.39446534956153323, 0.39835469338774626, 0.42602464129182543, 0.43204908724883845, 0.4447796520295191, 0.44371143121864276, 0.419986983408477, 0.38722870182210917, 0.3698291296758999, 0.364198606953624, 0.3464796145454559, 0.36207001892404317, 0.3476537619281171, 0.3581882434978452, 0.3726081848822651, 0.3596362978367383, 0.3898295502232466, 0.3664799871817937, 0.3777307803578627, 0.37923422880912605, 0.3848582751648401, 0.3876874242589892, 0.3805928321327525, 0.36769898092032205, 0.40211486966186244, 0.4334590392322791, 0.44261932162796774, 0.45843715038057065, 0.41702400305624543, 0.4154507645611426, 0.40187694606442403, 0.37560166464003614, 0.3939477379338995, 0.41311053133405584, 0.3976054552121964, 0.39124392848207007, 0.417673715306646, 0.44125709582225525, 0.4380185803157657, 0.4297295107518232, 0.40589969728571046, 0.4075952331133558, 0.44074399861955577, 0.44208523254552945, 0.5021533651601107]",False,0.8000,0.3000,0.5000,0.1000,0.2000,0.0100,2.0000
23,nogo,Correct Rejection,0,2.0000,"[0.0, 0.008059705915905577, -0.0011947276093593733, 0.015530629281924143, 0.01089442831257011, 0.005282926741532941, -0.03363576128294551, -0.04525933184037398, -0.04582638854692299, -0.03897449764438462, -0.05930142336052344, -0.036136957618618765, -0.04762977076680591, 0.00912440021466017, -0.007848980125837103, -0.031916406445082625, -0.05987354043670996, -0.08204250027538867, -0.08020826362417806, -0.09163218908074283, -0.08079936222339855, -0.10364728112491794, -0.08338794845095492, -0.08518981231804615, -0.11564327625939493, -0.13307782852747363, -0.12934403180448323, -0.11056205979300397, -0.11727733193160185, -0.11389665277636349, -0.1311313860968633, -0.1250149522339468, -0.1333152157849935, -0.15265355990723933, -0.12923182655543367, -0.10896769512336339, -0.13386673480871605, -0.12081281283775966, -0.11763361855306066, -0.11527773009386763, -0.14716236096360746, -0.16257397840156734, -0.16577270846905479, -0.19283985575083074, -0.1865436568117693, -0.19284805662693486, -0.18861104127465808, -0.18080346540082576, -0.14320581278301003, -0.1561397025014777, -0.12468083390537582, -0.07704896625012639, -0.07556642521309333, -0.10728721276866521, -0.10201074638419314, -0.1319228228464335, -0.13562098397390948, -0.13553188449579126, -0.16177552897682318, -0.17531978871165158, -0.17559871225275675, -0.21041461892306323, -0.23696191007618028, -0.2346780190368385, -0.24327476439350376, -0.2730898464490525, -0.2803291220322875, -0.2970943400154413, -0.2744955809082657, -0.3045966313059829, -0.2528045679042733, -0.24412103572832333, -0.2486262450466599, -0.28554044356743846, -0.3007549846058143, -0.3226465804962409, -0.34258604897139117, -0.35311516506235463, -0.34145598278806655, -0.3287834074060446, -0.3380519678883788, -0.3533725060168244, -0.35298926418078147, -0.3433329572537712, -0.33942990037755555, -0.3377998946531741, -0.34584857997870677, -0.33096017733913335, -0.32257245583745797, -0.3126998681235316, -0.32489028893109106, -0.29518696431944, -0.2780338189354776, -0.24793460771840473, -0.24771809451871835, -0.2526783207499597, -0.2534674482999154, -0.2707998380210408, -0.2798680373378614, -0.26957598412984124, -0.2859323811491082, -0.2933413279342439, -0.30901198157190224, -0.32868037689437124, -0.34514573343974114, -0.34723390140488386, -0.3300973937536661, -0.31580259068117666, -0.3228014036197501, -0.32432524271873414, -0.34930257604464904, -0.35079511854660445, -0.3384466056242824, -0.37642525872949173, -0.3942514935893441, -0.42656627079625353, -0.4519143309800251, -0.41651917562668517, -0.4228572966138302, -0.4208451621050817, -0.4139391232593301, -0.39959063268011136, -0.39619624596145303, -0.37634705581627953, -0.3658974116666208, -0.33977362604071815, -0.3363525114522956, -0.32840096009685416, -0.3074245214404045, -0.2978213043132837, -0.3204896268107776, -0.32885218707947544, -0.3031655785841049, -0.32943623653849097, -0.31043607341155394, -0.30034097706183654, -0.3217169882674844, -0.34074748356634765, -0.378429156305154, -0.3649510599536177, -0.38061078218842215, -0.3493392294645057, -0.338053606527045, -0.34584474799521625, -0.37450700922352914, -0.36617036532949127, -0.38740746872950915, -0.40145909524664075, -0.3879642496207377, -0.3833453375116306, -0.3552578687084461, -0.37124818088979855, -0.39989845698232124, -0.4434749950865632, -0.42969314200159425, -0.45008270233579334, -0.4222187378613753, -0.4531829460558146, -0.46361049179416647, -0.4510778381169688, -0.4418773416475671, -0.431175946154336, -0.3887966920065565, -0.3764727240619872, -0.38724140342737046, -0.37605872782413835, -0.4278257192188932, -0.42069908398379613, -0.4298760464560969, -0.4539686214057614, -0.4750115677915723, -0.48291443138950646, -0.5144944699540462, -0.5086013559449822, -0.5332532474858949, -0.5142054298921847, -0.5051094727893982, -0.4868747871557996, -0.5112305399481528, -0.5151752321347707, -0.515999677515755, -0.5206335468301173, -0.5351040049847204, -0.5714691727762712, -0.5519424622298137, -0.5152077393256457, -0.49144945789009103, -0.48444463676584776, -0.5118669056280558, -0.5354861084991808, -0.5643857503819042]",True,0.8000,0.3000,0.5000,0.1000,0.2000,0.0100,2.0000
24,go,Hit,1,1.1100,"[0.0, -0.03502454168576566, -0.07447353280491859, -0.06653959272776717, -0.04548291022181833, -0.07667710704533151, -0.04231942390341626, -0.029951722231207855, -0.0475943906831827, -0.04407019793144071, -0.03791704718366519, 0.005216695270424052, 0.003007766440341125, -0.00014601913718883044, 0.006334700840292023, 0.033727163064060206, 0.04242566026194826, 0.0680689939559449, 0.05665101528208686, 0.0639037739208434, 0.05962978345898426, 0.036919765757864695, 0.06547160120649922, 0.07218636862713904, 0.06823933703954858, 0.0767656116833556, 0.08169555230339696, 0.10240321392459456, 0.11015079749519288, 0.09660298247163872, 0.134932603711713, 0.14719743583435813, 0.14631125206078474, 0.17105931058384818, 0.16105428047289672, 0.1430875927358131, 0.17148280684651507, 0.14619082416577306, 0.1672700579639772, 0.15889630814793376, 0.1919744006841328, 0.18662157774954186, 0.1709005654138714, 0.13705488584402212, 0.13848621671219924, 0.11894011756017307, 0.11894564350473989, 0.14007894699933024, 0.1461214048006192, 0.15008572573372858, 0.15853413273136963, 0.16525814052061163, 0.17641208880996612, 0.19303563372029953, 0.18462875268639867, 0.19160323755928804, 0.21637891557334504, 0.23496335966892026, 0.25753384012334535, 0.2492788388392047, 0.2618911027596489, 0.2859238347357308, 0.31010731213786397, 0.32015362125416075, 0.30521197653194637, 0.31807128668491236, 0.32325573159043164, 0.3535875530594422, 0.3660103862615489, 0.3664031186536851, 0.37198703497434454, 0.32738145929687995, 0.3286078206816146, 0.29738320664377266, 0.36035540940715594, 0.37090608299526734, 0.39281082540828066, 0.40014004371717776, 0.4185030804585835, 0.44839719203552675, 0.44690250689596517, 0.4479775928101434, 0.43406548880506124, 0.42551209497358666, 0.4663505896406293, 0.45231466139775445, 0.45443119174107605, 0.4607995118243043, 0.4337982456148479, 0.44773707460027035, 0.49066081144877144, 0.479186811945571, 0.4797193880528601, 0.4578830629927466, 0.4300280973503881, 0.46164460103392224, 0.4869221316257106, 0.49701086480403095, 0.4808728649577903, 0.4836799025147709, 0.4919863687958561, 0.5080644821370919]",False,0.8000,0.3000,0.5000,0.1000,0.2000,0.0100,2.0000
25,nogo,Correct Rejection,0,2.0000,"[0.0, 0.0017596213263191794, -0.017418359641768896, -0.012967941231340135, -0.03191266667490944, -0.028386817150632536, -0.0588756923379201, -0.07644774115865208, -0.09225141296856075, -0.06373969579001425, -0.09495562772504258, -0.09336934147934865, -0.12755274430414712, -0.14550683275847126, -0.15860659508606023, -0.197352205070919, -0.18697456756564435, -0.181103173278685, -0.18041877866868833, -0.18429877864884106, -0.2070394249302703, -0.20834150463720932, -0.24848532128036283, -0.2578329301481749, -0.2885512981575577, -0.2719091968229658, -0.25352215481260265, -0.2789556935002237, -0.28944399871974114, -0.31047004287289814, -0.30248504122782777, -0.32382979606969264, -0.3356781330998101, -0.337450766400482, -0.3656768550327659, -0.3427585420060723, -0.35358896689252706, -0.3656735677270164, -0.37605520641017104, -0.3666053785862782, -0.33050678076448436, -0.3561305004175294, -0.35574620281356645, -0.3679765657166774, -0.3533687371433266, -0.36449289682511415, -0.3682063894364429, -0.37886101907835884, -0.3948727023913369, -0.4055918423807833, -0.39519983917224033, -0.38666375718445745, -0.4015267316870357, -0.4076137852104109, -0.4204611764351731, -0.420982735623485, -0.4234299440032163, -0.43284984226760537, -0.424712094661432, -0.4267048200485625, -0.4209080101898879, -0.39641318344173593, -0.42886503658483394, -0.4331227201849189, -0.4164607208822752, -0.38501301213650463, -0.3747697996538109, -0.37179340136604566, -0.351210487552462, -0.37009566871334704, -0.4142855692273482, -0.40432207247871815, -0.3834777154695609, -0.3694953578162335, -0.3851812314825066, -0.39523907697183475, -0.36964937996953423, -0.3593879434050318, -0.3861350124961152, -0.4295245915860385, -0.45635456164705424, -0.4516592346714676, -0.4784533582746797, -0.5109052876737298, -0.5496125788090543, -0.5646585333835198, -0.558713709303156, -0.5212165451513795, -0.5050819049642702, -0.5155045364881978, -0.526387084112593, -0.5013373534450662, -0.47157357343780965, -0.4750594797740707, -0.4881634187354605, -0.5100681428033541, -0.5376345110063386, -0.5238946717202092, -0.49761808596152646, -0.45353595916621803, -0.45298300884983733, -0.45289821125879437, -0.4417922021773819, -0.47257658561104104, -0.4979146197826791, -0.4770490254280158, -0.512824587360026, -0.5135757879140368, -0.5212941637398294, -0.514215958966521, -0.5423506321114205, -0.5328203026467364, -0.5081175122477681, -0.5010216920362471, -0.49055599971780667, -0.4559224172719888, -0.48149860637460185, -0.46915348444954574, -0.48815143430246133, -0.4580356171257131, -0.4663070410321469, -0.45765045627609846, -0.4622265170022826, -0.42808119933218847, -0.44444114003885726, -0.4183857792087932, -0.460263929008527, -0.4431594865573089, -0.46206761168444704, -0.5132234504548735, -0.5228088251714889, -0.5256276444679318, -0.5372879608995346, -0.5165754831678921, -0.5390207744471613, -0.5498720322736351, -0.5619263050961605, -0.5366201684999644, -0.5402822233850172, -0.5196914781381606, -0.5244285347400638, -0.5193185789500453, -0.48420905088103333, -0.4752630383628815, -0.48615615235600673, -0.4524881666874465, -0.4222808716107056, -0.4403548567120973, -0.5067221729748443, -0.5096827633619352, -0.5300352494756287, -0.5423982279338537, -0.5701958323624833, -0.5962894316112125, -0.5887279762202624, -0.5769782415221838, -0.5664788132428952, -0.5473535013787558, -0.5724505925532227, -0.5623105205823793, -0.5673687173862135, -0.5679714230587495, -0.537251975545088, -0.5478929563983752, -0.5442524107942313, -0.5516637994644583, -0.5434824996955796, -0.5510983430644316, -0.5513320881592215, -0.5690354282915913, -0.5698211011929945, -0.5647204954940417, -0.5594420339106689, -0.5831491923399083, -0.6045823815468652, -0.5836823803526249, -0.6040892766614633, -0.6457344803188498, -0.6661262136592101, -0.6388883504676892, -0.6471464876242013, -0.6532812757485933, -0.654526150572826, -0.6107024941703563, -0.6292068616758824, -0.6427385815694003, -0.6338767013399574, -0.6056449001741311, -0.6098965583929307, -0.6167857384184, -0.5897541125454391]",True,0.8000,0.3000,0.5000,0.1000,0.2000,0.0100,2.0000
26,go,Hit,1,0.6300,"[0.0, 0.02696029664249287, 0.03176305403604384, 0.04903409857054687, 0.025654358250617973, 0.033074283724016634, 0.08932751191898544, 0.0813375554770723, 0.07475477483452249, 0.05616478870086245, 0.05544323989762848, 0.06033718441216625, 0.09118213879719916, 0.08544009941649286, 0.0994380447388372, 0.11147827722832171, 0.09628152655239876, 0.11946384851932132, 0.11396028722447166, 0.1231809289890074, 0.10904739892943503, 0.07534768597663861, 0.10995187062778, 0.1310180545219669, 0.1344738054246465, 0.1735466690365722, 0.21129325944129085, 0.214932681862752, 0.21411367376771037, 0.2711432391241408, 0.3219742457775722, 0.3403894748037917, 0.3438658959571743, 0.37805305625156116, 0.3742141987863825, 0.3908366442485248, 0.41095480285905645, 0.43281314957737127, 0.4682208241205025, 0.4626771579019598, 0.467496687873995, 0.4473410583280419, 0.46846603628856975, 0.45939687028696974, 0.47652729454133064, 0.4657672592231518, 0.46291786482095343, 0.4427981311428413, 0.44654741451317115, 0.47253883883074643, 0.4692821692671732, 0.4676503679196523, 0.4848517842059622, 0.5181594862872818]",False,0.8000,0.3000,0.5000,0.1000,0.2000,0.0100,2.0000
27,go,Hit,1,0.6500,"[0.0, 0.0015077029900831818, 0.0065300237546799325, -0.006296249241653142, -0.02302989667161863, -0.001213295399089341, 0.030962298318184325, 0.033472226278251714, 0.07084761133999126, 0.07289575049094271, 0.08780340597762204, 0.06494692169118121, 0.06474727180905385, 0.05124433788421401, 0.0810995698109071, 0.1095516707075635, 0.10840134115324837, 0.10799263574673695, 0.11302155320164714, 0.12438424789955843, 0.13521460891303932, 0.15769869768241873, 0.15503490691520927, 0.17295214476741438, 0.19431239198738748, 0.18702430866794623, 0.182967101277971, 0.18924397138227605, 0.17868674795870998, 0.18252049028984044, 0.2004881738411686, 0.1790643213237293, 0.18459886923683771, 0.1984799300073285, 0.25288485448494846, 0.24558324730209474, 0.21705380827353743, 0.21802249398845977, 0.223594967749867, 0.23241340668325317, 0.25927030126314055, 0.2696175581697457, 0.29220450666451747, 0.29392941597356315, 0.28717441002424354, 0.2988292351571216, 0.315702692022543, 0.33953145898457127, 0.3294545113317796, 0.36951281406058467, 0.40938493329629405, 0.4086991090517847, 0.4145637414291357, 0.4414971677910103, 0.4833175333436644, 0.5051456792735216]",False,0.8000,0.3000,0.5000,0.1000,0.2000,0.0100,2.0000
28,go,Hit,1,1.3900,"[0.0, 0.028587157981584024, 0.0703812336061124, 0.0445839598427082, 0.04545841159183178, 0.050093643354396394, 0.031691931891950145, 0.029727358378869848, 0.040028772619553774, 0.07592969172811528, 0.12905149204029398, 0.1374745122515693, 0.1356135282881295, 0.14278423258196837, 0.13452372397035955, 0.131760468951148, 0.15710423095128312, 0.1607795552848427, 0.16390861950927146, 0.11355920432979189, 0.11389394703089699, 0.09916592797770203, 0.1175470978732199, 0.14330561055786714, 0.13023689544503783, 0.13563897075331316, 0.18717087064397817, 0.1873662566426254, 0.1971967723526754, 0.21751979394115056, 0.20455934451616925, 0.16392222669359435, 0.1396717427653243, 0.14485884455715595, 0.12512882547220835, 0.13037292508935816, 0.13039171455268506, 0.12933060439301197, 0.16954498211422883, 0.14744036882709302, 0.141443443589615, 0.12743638600351628, 0.16130216315525703, 0.21171836809142333, 0.2205513165402671, 0.22163420296174047, 0.22450110799880343, 0.21263683303192463, 0.24059597292464885, 0.26462587826136075, 0.2806949531182748, 0.29096725241154814, 0.3004840293030361, 0.3021771511256832, 0.3070814070858328, 0.3177555717349699, 0.32344607159831273, 0.3419176335722504, 0.3526116989905289, 0.31548260177598664, 0.2869510239103267, 0.28141509944818416, 0.27041926115078285, 0.32124977832142393, 0.3056409045822261, 0.2993797000359119, 0.2990407889935531, 0.28987984298892666, 0.2929610927582289, 0.3235820811349116, 0.33144839135498355, 0.3601547788949926, 0.3755450154193991, 0.3653017021555585, 0.3586983882401375, 0.3238861855466755, 0.3570513392447192, 0.3441262546074036, 0.3942459682104116, 0.4037120923781571, 0.39974859980212835, 0.39580186569414905, 0.3766496078357173, 0.38585821925464253, 0.3775762229031713, 0.3804531338563402, 0.39408579507871583, 0.4280012410053989, 0.43033994680124954, 0.46011096151191755, 0.45182518570700503, 0.43955327760792995, 0.45277227418412075, 0.43980604576375953, 0.3894619673067998, 0.3897853907202958, 0.3903926931149607, 0.3737033707731272, 0.35560151670072837, 0.3620035733470149, 0.3518787663801851, 0.3780772785784361, 0.37111370010816963, 0.36728584727058333, 0.36902109110500986, 0.36802894326415486, 0.34408432165681935, 0.38297875505118995, 0.38037779049567016, 0.34989459153564784, 0.3919833491957009, 0.3701386531472323, 0.40385244122140673, 0.3925879028306717, 0.368059472915362, 0.35867737084982754, 0.3458636389704176, 0.3695873293831912, 0.37659383607657027, 0.37827032308122943, 0.390197825537962, 0.4029292423066824, 0.4049708683035128, 0.40540408038601944, 0.42710512614845747, 0.436719366992885, 0.45831894682672486, 0.47320751875924966, 0.4820546553212513, 0.5275464709846476]",False,0.8000,0.3000,0.5000,0.1000,0.2000,0.0100,2.0000
29,go,Hit,1,0.7700,"[0.0, 0.022317064423620872, 0.028608331176403514, 0.04152582841617771, 0.043878021210420365, 0.04049044213334094, 0.020336779363846008, 0.006712708953876472, -0.00320934349789153, -0.008515500064214152, 0.0023591540491992684, 0.03207535517547383, 0.009010875464224272, -0.024606882354576705, -0.013588047907096607, -0.012895352560243177, -0.02729593194321618, -0.03130400734551429, -0.022663737257997137, -0.015730794436438614, 0.048031093911373265, 0.0609831624250671, 0.07403401516054328, 0.08985309126804458, 0.08408211481341994, 0.09739929756278615, 0.1073897395286371, 0.09930985776516194, 0.13463911518010024, 0.1435917075636331, 0.11652453751030725, 0.14005181766165387, 0.12403080333553164, 0.12335745831201425, 0.12578252321698047, 0.10683793381028214, 0.09958056845740842, 0.11487045052109456, 0.12915425626409072, 0.12284362970629406, 0.13132430003660153, 0.14054481272880548, 0.13549247821405255, 0.1481980200948219, 0.1508763521651017, 0.18197171461746933, 0.20807240286795933, 0.2164582201874707, 0.2289913117450751, 0.2228845184344129, 0.21558890779776382, 0.2496971852308843, 0.272863004100717, 0.293041585099444, 0.29789256401732006, 0.32539138576294035, 0.3709219368667571, 0.35876085870470453, 0.37185717074317226, 0.4177885644827158, 0.4409955087062668, 0.42122373531386254, 0.42943353579758164, 0.42904463361495604, 0.40264668125386266, 0.4151526248266134, 0.4707495825600572, 0.5313893732531407]",False,0.8000,0.3000,0.5000,0.1000,0.2000,0.0100,2.0000
30,nogo,Correct Rejection,0,2.0000,"[0.0, -0.010075465858126718, -0.009226629464112904, -0.030052295016987817, -0.043707958053754874, -0.023246041894216536, -0.03220523243039209, -0.028270227191304176, -0.041615493180249076, -0.06529768427753321, -0.09120670697072998, -0.12823326204999375, -0.11731225223917444, -0.1279582694365396, -0.1401613746584895, -0.15078902212394976, -0.16644312265671668, -0.18880516465709582, -0.19743616028704808, -0.19737417446764222, -0.23332257859707523, -0.20419121589106065, -0.21566362847099746, -0.23802930970483602, -0.24501280574563672, -0.24499061309283304, -0.2459812904142166, -0.22421089310090445, -0.2437788426498448, -0.23003830115309215, -0.22751080092632303, -0.23610400625475464, -0.24644442577365153, -0.26899598111907863, -0.277160297925615, -0.29620009056523616, -0.26323021421041987, -0.2858834525021901, -0.3153805947620863, -0.29628546363849806, -0.27565776358251926, -0.2711829338659782, -0.2656224574634573, -0.2776118606245975, -0.2627507743195365, -0.25257763489032603, -0.24159127694278387, -0.26235444094690213, -0.27072066850535903, -0.27443794975944297, -0.2572554239151006, -0.2892595105685591, -0.30539913750479664, -0.32253610566541696, -0.32538785543530074, -0.3130236784276493, -0.2867814633844141, -0.2560452167627142, -0.2544855424171824, -0.2714777665510929, -0.26656380405634406, -0.2781208777138764, -0.3068260172757717, -0.2932780402316522, -0.29699973058515766, -0.2550654549033419, -0.2434928665956464, -0.23895158113816212, -0.2506283735194833, -0.274456858026565, -0.30777342440722605, -0.29723954145124243, -0.3127371431387977, -0.31726467966176786, -0.295100881575511, -0.31034447957609945, -0.31830687314523987, -0.3320472845575842, -0.31930145503245916, -0.31362164142320664, -0.33280711615846675, -0.35214752260920723, -0.348266502179929, -0.3814413252685346, -0.37228576381253814, -0.40568948801528015, -0.416703722347682, -0.4141781307359605, -0.4335427837916529, -0.414716250898752, -0.403808870632157, -0.39313661359763674, -0.43050855762979984, -0.44822194970950574, -0.4222842057440098, -0.4346115373040783, -0.46828760890525317, -0.49614673294936945, -0.5002539842407324, -0.51754784712904, -0.514029734831362, -0.5085278583334298, -0.4737520962488201, -0.4799224792320437, -0.4715640076650827, -0.47963501844255535, -0.45902186532106815, -0.48680351321645493, -0.5038720754184152, -0.5000343819834242, -0.48806038379639033, -0.4594276226331179, -0.47478962232340327, -0.5023371987514672, -0.4944157460670841, -0.46446307482359744, -0.49555936304208453, -0.47718871447276967, -0.5007840043001506, -0.5178716964794327, -0.49987884535078014, -0.48551923038458306, -0.44678054076883106, -0.43087372195423557, -0.4475136029299499, -0.4578362166583519, -0.47265130916279857, -0.46178812089463683, -0.46077049856897767, -0.4526619544055261, -0.47439120005216756, -0.436422018271507, -0.4523089909770586, -0.4560918840348705, -0.4581162360711821, -0.4645299416543056, -0.4793134849285008, -0.49169844293821424, -0.4911968849032807, -0.5150521886985224, -0.5247093305837094, -0.5284975294790604, -0.5445290250242847, -0.56140662745479, -0.5731862343114315, -0.548574895352502, -0.5910223459293785, -0.6082588096264658, -0.6334565747584898, -0.663851225014929, -0.6517478040743243, -0.6494210373571522, -0.6280332577194602, -0.6269159558855668, -0.6453453445518931, -0.6253500288240045, -0.6172621235092759, -0.6330208275667338, -0.65786768809844, -0.6708592877165839, -0.6949407269343394, -0.6932857117866926, -0.6982844441960498, -0.7133556137857427, -0.7472867513655435, -0.7634142068094567, -0.7652346326239631, -0.7658327078587167, -0.799767317121068, -0.7769752040256478, -0.7431909357205473, -0.7267417801120811, -0.7546413971020566, -0.7878113187545484, -0.7635904625847214, -0.7538724755962718, -0.7434429891416993, -0.7392632396985492, -0.7579112770203464, -0.7499768940812432, -0.7173164232868194, -0.7317821685708574, -0.7563959764715101, -0.7636196047694892, -0.7578909192274919, -0.7328899171932545, -0.7264547425356492, -0.7501395487032184, -0.7365889600384216, -0.7061751736532533, -0.6939846281923162]",True,0.8000,0.3000,0.5000,0.1000,0.2000,0.0100,2.0000
31,nogo,Correct Rejection,0,2.0000,"[0.0, 0.020829944581183486, 0.02020192026051261, -0.0018866723349422222, -0.01810940112049147, 0.025041557291022944, -0.02388897373962905, 0.007115084453029132, 0.0027903285130877233, 0.02287802486956673, 0.022283627356098235, 0.046360995227922586, 0.05572671377377493, 0.11237326628568317, 0.12781041152912825, 0.1467296102581695, 0.13786677090903762, 0.1450331257114902, 0.1766435348039389, 0.13723032723923695, 0.14973736670128074, 0.145207686149628, 0.16362378496692798, 0.14579212862975863, 0.17695756581927932, 0.15135845562655442, 0.14650697135972954, 0.1388255959442981, 0.13148112882969532, 0.1609015179537379, 0.15414925653663708, 0.14227135802707286, 0.132543106563014, 0.14748718087802307, 0.11192508842564469, 0.07491174795471763, 0.0645872854952391, 0.09052461613225206, 0.04787543362859004, 0.013209033357516137, 0.016573118577000147, 0.01574602939325393, -0.0028270400253584543, -0.002479200984137612, 0.022663015156492005, 0.007026357696216099, -0.0009311484010326235, -0.002805412956285355, 0.004689657521558084, -0.014336305323012666, -0.03618508882061766, -0.07127502524122281, -0.030661282522804846, -0.03289047729719938, 0.0032047061574514077, -0.0070457919853141385, 0.0035157524851053383, 0.024478753047360798, 0.014237375344376857, -0.010870491989015345, -0.018310091288421645, -0.008035206292044114, 0.00392485737506772, -0.004624009430585895, 0.011431397768688963, 0.01055841493723801, 0.017702359514414793, 0.022763830142737057, 0.0013327042510798727, -0.0189007467295945, -0.008331503056300125, -0.02508324258571899, -0.026655264670100917, -0.007391213411431501, 0.010542788429112531, 0.016033588369990203, -0.011563117184824591, -0.008112710781201585, -0.019497054492734273, -0.01677770659620693, 0.01223233880220169, 0.014991106043412463, 0.009612182532554817, 0.01202620549461094, -0.028085743746248802, 0.01890709843875147, 0.010812566561709095, 0.023785973123633567, 0.015379336573537433, 0.03489977896355796, -0.006641260430530843, -0.03474458438921471, -0.012508445332971654, 0.004073733216285735, -0.011098310778375524, 0.006024908029063938, 0.01658371273017813, -0.02110253994676693, -0.03705537294427859, -0.024439331363851898, -0.05615376536667749, -0.08724836677644915, -0.05156693441445348, -0.08366828487089494, -0.08884084528809062, -0.06085816585175391, -0.07948350648223934, -0.06954868394316828, -0.03950345461364422, -0.019337589435765076, -0.008259394583937086, -0.01201217995775461, -0.026585246524049717, -0.04107960473809542, -0.036210547951358155, -0.02012418330216659, -0.022186312300636238, -0.019569306593785318, -0.023927984753278127, -0.022241097866352057, 0.011261669644294096, 0.007920572513850293, 0.04675930083683416, 0.03060692166839813, 0.029001374609528036, 0.060918547212305274, 0.08167344980429217, 0.0799534220404587, 0.07247404283402197, 0.07047606045801146, 0.07005625849266685, 0.10911590806935433, 0.14093955021585017, 0.15470401698697658, 0.1434280567614018, 0.10791821049981629, 0.11428148422226564, 0.1033933688561327, 0.12194444921998339, 0.13201380448065395, 0.12734350088970248, 0.11945781242596207, 0.1331194369633979, 0.14815950706556424, 0.14711562604803152, 0.1269462483820051, 0.14086945057833605, 0.17589906456971816, 0.1802889861384473, 0.1847513329162994, 0.16249299857866972, 0.14533086634743217, 0.15616450947176003, 0.13511220957153555, 0.10724831993726246, 0.12052773272512705, 0.09680089650754439, 0.08579688163996045, 0.07418383668825536, 0.06747106480001909, 0.07440399228573019, 0.07093471249968768, 0.058333841209001404, 0.06894719406087561, 0.04774916958893245, 0.02616962869394473, -0.004572314480164069, -0.03147564031644716, -0.06527912072665233, -0.0742813244855597, -0.023722006031819946, -0.035127289087657665, -0.032642830855107975, -0.021922392792431904, 0.004849135386318985, 0.02307169461356283, 0.030505367414091385, -0.005071326987293852, -0.013539847884630887, 0.01423005674477821, 0.010436080989856036, 0.01599979852209794, 0.004068760992637692, 0.003891026186229863, 0.014891227061647937, 0.01192369934017557, -0.01719152006932361, -0.013090879655946746, -0.006878641250186242, -0.028798177822017348, -0.04059685340163614]",True,0.8000,0.3000,0.5000,0.1000,0.2000,0.0100,2.0000
32,nogo,Correct Rejection,0,2.0000,"[0.0, -0.02041362943879077, -0.020305380374197917, -0.04306292603114539, -0.05148811876007944, -0.07268867476130414, -0.05503251918879834, -0.03319158580019177, -0.028596310443823353, -0.06692683500249935, -0.0659384474821295, -0.05765856433992149, -0.0354011969746585, -0.03812423904339145, -0.03217046971276872, -0.038200307018742004, -0.0529937579979174, -0.06890531227967193, -0.09249156703323054, -0.07613090896435856, -0.09968601426894877, -0.10089238959061751, -0.13234472517383833, -0.11592081820893943, -0.11380924551646443, -0.07244804433381416, -0.06872048342853282, -0.0688157567373684, -0.06424313593456396, -0.04829453790708807, -0.046792243803939475, -0.019072388462142573, 0.011544305752183234, 0.02373892470111956, 0.02358074233217509, 0.057472175844984125, 0.046368367232226204, 0.02719214658548248, 0.01829920372130632, 0.035101524532091886, 0.04391610938751711, 0.027445751331402597, 0.00030514176263145634, -0.008300634540114496, -0.010819782473274565, 0.0059123386158395005, -0.021906870942225664, -0.02525348433323389, -0.0437043135452229, -0.04043911036876807, -0.005234053875397687, -0.03444730123789944, -0.030794828782054022, -0.012444232431082683, 0.006390694717137373, -0.027661266796449042, -0.0388599211608151, -0.06682984381071819, -0.07539164229655815, -0.0946554544906191, -0.13599232724029475, -0.16150014054539033, -0.18306079046442444, -0.19352155385706854, -0.17830813682440494, -0.19554937631322739, -0.20835271029506477, -0.217173011467762, -0.23069355664434196, -0.23461419995610708, -0.23479701717098594, -0.22693108488029085, -0.22535709868457374, -0.20563620708617797, -0.18477599219200364, -0.16132705019690713, -0.156388667168254, -0.18916577823163588, -0.16980586409535908, -0.14367790648267179, -0.14874315229415677, -0.175504927869239, -0.1918957050543352, -0.21465304305122718, -0.2208673703685748, -0.2173964835492793, -0.21609379930707545, -0.21936172166347304, -0.2215457726757571, -0.20789667032584014, -0.20812971328105812, -0.17544722902923998, -0.15961082458304518, -0.17461832498805782, -0.17243952433673101, -0.17231410597922336, -0.20888353304859936, -0.19135379681707484, -0.19346965806123903, -0.20857968465994456, -0.19964113455172527, -0.1958819855160358, -0.21186475931533025, -0.22832318570771043, -0.22406426972629567, -0.2022539602165158, -0.216963250480394, -0.22365435214247575, -0.2265025300597939, -0.21620841837797608, -0.2550019533138675, -0.2540611201505808, -0.27349144094740463, -0.2646115019162202, -0.2680370616919684, -0.3021482941091638, -0.3163549861264545, -0.33345100894866264, -0.36478437656635904, -0.38377210160309816, -0.42295079393158114, -0.42969229000659426, -0.4487831275331824, -0.4775256247274405, -0.49836681234145624, -0.4838315783191807, -0.4837223909880966, -0.48156655589477, -0.4959411814714797, -0.49587060671914146, -0.49825073073756465, -0.47630888392471016, -0.4607830330933253, -0.43983185510023376, -0.4181208144451576, -0.43718549210287294, -0.44685752709245197, -0.4706375618805405, -0.4706238830244432, -0.4628309341717107, -0.43918118469141, -0.4741300327786243, -0.45940719068234764, -0.46756070001710115, -0.4479993610809606, -0.48451173841123746, -0.4819979080287478, -0.4874056990361437, -0.45316992487936086, -0.46484919633019806, -0.47394589801316633, -0.4782790970513166, -0.47488775697234903, -0.502954060531332, -0.4811269378135882, -0.4862393180069096, -0.5114606387477889, -0.523320258137234, -0.5210017307134867, -0.49577335763153807, -0.4909555941165347, -0.4773163970962207, -0.456671704756725, -0.4627691297990469, -0.496975117638773, -0.5096204095557884, -0.546299385476167, -0.5367273543563992, -0.507846602684555, -0.515649106275734, -0.5326597834933604, -0.556392229772361, -0.5752079242984591, -0.5658784826526504, -0.5519360225103049, -0.5334370724952388, -0.5515172845805792, -0.5707504522457855, -0.5810022815586621, -0.5727689185274139, -0.5818533743386858, -0.5814570913751612, -0.5975631782027523, -0.6008681909863718, -0.5911225528660976, -0.6560747956258548, -0.6412322421928373, -0.6514468914197213, -0.6614240602998166, -0.6721592885423954, -0.6704952917725675]",True,0.8000,0.3000,0.5000,0.1000,0.2000,0.0100,2.0000
33,go,Hit,1,0.6100,"[0.0, -0.010346329361479365, 0.01285856704339192, 0.01483261141518493, 0.060218350584788694, 0.07979361541160081, 0.08274334626549126, 0.09865142471126295, 0.13635726238923623, 0.14791323046376617, 0.14884029938861343, 0.1432444085917977, 0.17625208382337343, 0.20239815116097148, 0.2450200212403706, 0.281093968262365, 0.28601415610069364, 0.2993995477983657, 0.29203253443893457, 0.2936752937834207, 0.29614667920747645, 0.28205448791230303, 0.3077519722519991, 0.29836247756073747, 0.3100341152211736, 0.32251981380956707, 0.3266553506653842, 0.3201858736034157, 0.350132064154132, 0.39169678575158573, 0.40249081875947407, 0.38449384890458527, 0.40170719256585297, 0.39291720758951165, 0.3893711533426667, 0.426674682713053, 0.42095448346166175, 0.41032991090756904, 0.39600441388456414, 0.4152623132391669, 0.4059439424049122, 0.4173147886389499, 0.38409745331283174, 0.3927897414767195, 0.39022184998662207, 0.4142442593732425, 0.39167021699715354, 0.41534610778975, 0.4276852207889089, 0.4338297575526814, 0.47191765585058487, 0.5401725563548845]",False,0.8000,0.3000,0.5000,0.1000,0.2000,0.0100,2.0000
34,go,Hit,1,0.7700,"[0.0, -0.036220619991342934, -0.030740002958161042, -0.024335192748961884, -0.014019907167618794, 0.039579824261649896, 0.04443186558623242, 0.045797541871090655, 0.034167294702703827, 0.0343234739371915, 0.032178649185142516, 0.06468516676638382, 0.07168235984677063, 0.08435083832220429, 0.09832842475186745, 0.11576781887202293, 0.1289915884183301, 0.1821753562533991, 0.1655318727026705, 0.18217148891053017, 0.18925688365216695, 0.20061247042338382, 0.21949529188499284, 0.2253993577211471, 0.20974311382040417, 0.21169253646177336, 0.20599334470211514, 0.21587739161956745, 0.2099911989717103, 0.2617877480775589, 0.25949204574351176, 0.2745128228023847, 0.23573548379570713, 0.24418611033476748, 0.28043306859267075, 0.2672536288633834, 0.25637316994779624, 0.29766632679504756, 0.2792764746420915, 0.27206562571083, 0.2949566919408258, 0.27885900123522256, 0.30782818676389856, 0.3013080036544031, 0.3093362916035148, 0.31036757999611475, 0.33507544190073724, 0.3552175959921855, 0.36637763163715825, 0.3952876296702531, 0.3947376976876598, 0.39925543953551346, 0.3594939776654923, 0.3480712134549995, 0.34060367378420564, 0.3331992875866886, 0.3418602643006172, 0.3446216362027805, 0.4113550356911584, 0.4118860971702457, 0.43031891883240714, 0.4452176210962843, 0.4563919244715317, 0.4775150866939179, 0.4885449427944083, 0.4708774778420641, 0.4716140426342932, 0.5040966157722875]",False,0.8000,0.3000,0.5000,0.1000,0.2000,0.0100,2.0000
35,go,Hit,1,0.7100,"[0.0, -0.041015775856791725, -0.02779288181664213, -0.023220828015517565, 0.0010553240336463217, 0.035896857204859786, 0.033721739689674735, 0.0659913250835421, 0.07632534847242814, 0.072895749274952, 0.07604758482530351, 0.11839561355381611, 0.1536187278956701, 0.15717802959657215, 0.2137274528673644, 0.20697969513822637, 0.20957243555567956, 0.20627629368242112, 0.2202312414303577, 0.23889337560991492, 0.24254844740843068, 0.228253044200666, 0.23049577818826153, 0.19541513774129649, 0.1691231136271996, 0.18539290313915172, 0.1477592715963162, 0.1469126866859239, 0.1543955096262994, 0.1641635112191187, 0.17037970337166697, 0.19702447964055136, 0.2162889837697062, 0.24443335177837683, 0.22938686736387978, 0.21933575559661586, 0.2358856923862933, 0.27435842852740366, 0.28651336605816013, 0.3304217215350356, 0.31343396978685606, 0.3258405260645715, 0.3418435665118513, 0.3747020069328029, 0.3932123058414898, 0.40285211732418036, 0.4087616988376616, 0.395074647576525, 0.4057655155776707, 0.39144976919850843, 0.4026303285318968, 0.386099568775936, 0.3720346625509197, 0.3733835394863632, 0.3708168203854563, 0.4211772871496941, 0.4150987466847421, 0.4579213217381714, 0.42930276886170204, 0.46695549318392565, 0.49802389861182944, 0.506805371289532]",False,0.8000,0.3000,0.5000,0.1000,0.2000,0.0100,2.0000
36,go,Hit,1,0.9400,"[0.0, -0.0017666636949459288, 0.006729202491686646, 0.030257816178226545, 0.030645954253934165, 0.026973059403832947, 0.023741092350363112, 0.020193564573247533, 0.04802319534727484, 0.053637825687527056, 0.05994960684584327, 0.07432282999526851, 0.09808723395895724, 0.122651324577127, 0.10267778027189861, 0.0997598957058021, 0.11845446839342702, 0.1592125431740865, 0.1622792624029802, 0.1596480370508148, 0.1775071375073154, 0.1827352999887064, 0.19785665450687578, 0.22345566413359524, 0.2319901362782996, 0.22047487268267407, 0.2732654561924341, 0.2732356180935137, 0.28604719650491095, 0.2897172605872808, 0.30247891492580736, 0.3111250265863629, 0.263118065984638, 0.25943458229136257, 0.2927033604047145, 0.3292464135630215, 0.32214569414484334, 0.3106989131429304, 0.332379076352401, 0.35261204373182387, 0.3384056689431474, 0.35843942971207804, 0.41384445834906414, 0.4023023748389445, 0.40014998318520983, 0.41818282697224857, 0.4116116398463966, 0.41369319878002264, 0.4133411686705992, 0.41946686749246603, 0.4478542540203013, 0.43030406135965743, 0.4540213847002233, 0.47581706957720643, 0.47508150893203727, 0.48798122702741586, 0.4990312856360302, 0.4911025470618925, 0.4610748688671348, 0.45412464989068696, 0.46107956152991564, 0.45641695538507143, 0.4457847726035898, 0.42498085071508057, 0.40615159660070443, 0.39147040528707666, 0.40236819835089604, 0.3790425165008537, 0.3811288855619811, 0.36695102271901087, 0.3630052846917473, 0.3450653565162419, 0.3286375705819357, 0.35462373378844075, 0.3726586685751411, 0.3870708228357445, 0.4072753410913571, 0.4512561268284314, 0.4430610566242685, 0.4489531225229788, 0.4828281136516065, 0.49332735954474594, 0.4927610044396718, 0.48707889466618437, 0.5225668144297425]",False,0.8000,0.3000,0.5000,0.1000,0.2000,0.0100,2.0000
37,go,Hit,1,0.4100,"[0.0, 0.020310760624828866, 0.029026926531373093, 0.024934510339197885, 0.03720262594571954, 0.057693525281636425, 0.08812102971773904, 0.1108328507290133, 0.09198057612183494, 0.11504045188988563, 0.13332148880866151, 0.1707744482557898, 0.22612140548739487, 0.23778141327217622, 0.2418204462052608, 0.253229289986438, 0.29497249654938795, 0.30290590867025385, 0.31523086445968806, 0.3171555721293657, 0.3630563320747393, 0.36661985505382755, 0.38553160842911083, 0.3877910246247149, 0.4061586425558633, 0.43352443814391756, 0.43559504625364964, 0.4361343761967937, 0.44503924268623274, 0.4518738190318988, 0.4901995239305797, 0.5032474242457564]",False,0.8000,0.3000,0.5000,0.1000,0.2000,0.0100,2.0000
38,go,Hit,1,0.7700,"[0.0, -0.02035694635528469, 0.010107762299144993, 0.0440316074748191, 0.0442693914703008, 0.03344849457769204, 0.042447764808205696, 0.03783987394714321, -0.0005162873634867032, 0.006919817985788213, 0.019062386229362724, 0.03492911127835295, 0.04126617316508049, 0.09756213321486373, 0.11943883362454295, 0.15874141265674246, 0.16362659841232638, 0.17150889924997845, 0.17806256385791588, 0.17468307906415126, 0.1833713059483746, 0.19248324285285612, 0.2462611491579409, 0.21706630253350523, 0.23462935772392013, 0.2504025394090979, 0.2678948843265019, 0.27669850729902906, 0.2607570177380991, 0.2671555259194401, 0.30064028139655585, 0.2822120539896845, 0.2762561468760524, 0.27647503362714604, 0.2821694569963679, 0.2598818749765389, 0.262239594882479, 0.26720684329086264, 0.284874640231352, 0.26218712840311575, 0.27339831878316806, 0.2649454616284889, 0.26170499930377983, 0.2650054041891548, 0.3021355255854814, 0.30968105437580207, 0.326388397922488, 0.3377897851189727, 0.37485000674154717, 0.3588472874123418, 0.401486603779408, 0.43463202674213597, 0.47610702104237274, 0.4735524007858555, 0.4645664211398086, 0.4492700207984452, 0.4748652312168013, 0.4848489426885908, 0.4573502453322348, 0.4692453760946067, 0.4676469020566985, 0.49386872267797266, 0.48633863136646904, 0.4893070876971638, 0.45615605261942366, 0.4659865159313743, 0.4576295933038132, 0.5068850746754658]",False,0.8000,0.3000,0.5000,0.1000,0.2000,0.0100,2.0000
39,go,Hit,1,0.6100,"[0.0, -0.021199248014174308, -0.0009939172811606473, -0.01392161483307746, -0.003380914771141854, 0.00948967787368309, 0.02454549593607496, 0.02026763607931337, 0.019145380999687614, 0.029169458981319243, 0.037354333523035334, 0.031642808390984094, 0.02347331899177832, -0.008465046043858122, 0.0042352781695389734, 0.009278862279355756, 0.0010303043092975833, 0.0048597517634731266, -0.0192107510939487, 0.005726271478596907, 0.02888728871034495, 0.008582770180146991, 0.013617270842455814, 0.0005621332228824584, 0.0138323651855316, 0.06429530162949962, 0.07444953793353852, 0.10961574404318744, 0.14352601542310403, 0.13488833806963116, 0.13325783123093385, 0.1673416673637749, 0.17077119423548517, 0.16510346972870144, 0.16942410451532497, 0.14874108867497643, 0.1745485108927473, 0.21100791930390073, 0.19424216368785063, 0.23189920408042722, 0.2529392675362379, 0.26009570474264765, 0.270455714620289, 0.28365518529564426, 0.32312564132937954, 0.3612134301643204, 0.39811774687732315, 0.39817279928662885, 0.4146500237928427, 0.4538637158172487, 0.46293362006530203, 0.521373553469919]",False,0.8000,0.3000,0.5000,0.1000,0.2000,0.0100,2.0000
40,go,Hit,1,0.8200,"[0.0, 0.04269491700308032, 0.050564078862992745, 0.04617865808960362, 0.04557237170348977, 0.06676785527680247, 0.07501120671672556, 0.09531524749097214, 0.08425722100823868, 0.07233585156888606, 0.07447313529637792, 0.08462918454631982, 0.10816802451837343, 0.10257010997797586, 0.049710340321372504, 0.05971653801695792, 0.08313212586246915, 0.10564751200056914, 0.09379450674215177, 0.103187499657606, 0.0954605063782501, 0.09663303450994387, 0.12303221203474794, 0.1546353820814789, 0.14457370927119348, 0.1370924581704616, 0.149669777893131, 0.15526302371798217, 0.15788863229837855, 0.17986535548611277, 0.17959229817724165, 0.2104809279208953, 0.2486085643522908, 0.251046607604267, 0.2886479773081714, 0.29372310663839707, 0.3040775065050422, 0.315300160548278, 0.29638511117792826, 0.28368743387782747, 0.29387268036137043, 0.273746710842979, 0.26608819735821665, 0.27825969929389033, 0.3102108744272123, 0.32038720831973283, 0.30945758226633374, 0.3206547859119477, 0.2846905820090478, 0.2891315856232306, 0.2986571661471388, 0.3265963326204254, 0.3402927827109401, 0.3615777798805348, 0.3889053828719303, 0.3919611687071068, 0.4195137610263227, 0.4149272217754946, 0.4301165980865785, 0.44049425524917063, 0.4471257366903478, 0.44671843069477746, 0.4790635285237902, 0.4678981114680537, 0.48970256124360945, 0.49397700553217294, 0.4726619463691198, 0.4711350044870666, 0.487452896758131, 0.46703527667911765, 0.48352133083629034, 0.49005170817485444, 0.509408775265516]",False,0.8000,0.3000,0.5000,0.1000,0.2000,0.0100,2.0000
41,go,Hit,1,0.8100,"[0.0, -0.006672391724818403, -0.02530273770294307, -0.0103313341308746, 0.03674256587463722, 0.016454871901704582, 0.025450951958163805, 0.03558945936927014, 0.0530623082223456, 0.053238371000742704, 0.05455819690956817, 0.06485022705775234, 0.07203708008833654, 0.11756759224330657, 0.12823090914564064, 0.1582650902265234, 0.133700043954807, 0.10985719235704036, 0.11870542832824398, 0.1519307953384328, 0.1352237285092692, 0.13065678326583938, 0.13247080050449905, 0.12663131925102875, 0.10878019968294625, 0.09055731065466543, 0.0751403521343291, 0.10673909272572157, 0.11973532368430087, 0.13803537909142208, 0.14382564102131556, 0.1499443716023859, 0.1701742018027313, 0.18554998014821625, 0.19125017226932822, 0.22787680818221687, 0.22398558604640112, 0.23335760326020172, 0.2396548983446383, 0.2319315213233873, 0.2614751788408718, 0.3105861212017805, 0.3138488713102459, 0.2937895666316243, 0.31349887669926435, 0.3133868728531362, 0.32719177617393597, 0.3499340849012646, 0.351575949939326, 0.3427410733032211, 0.3679872757701817, 0.34314096888361184, 0.35169161092910406, 0.3619896534929526, 0.3666625198660226, 0.3922544520946893, 0.4166510340074184, 0.4326449997565587, 0.39545795581600224, 0.3851800505723211, 0.36045019764534614, 0.3525323829503101, 0.3744322356038048, 0.35114510652935876, 0.40969414772999296, 0.38561496503024273, 0.38509133956915753, 0.409223131394282, 0.42360256492943393, 0.4294298248524533, 0.47337077034469555, 0.5071747102902291]",False,0.8000,0.3000,0.5000,0.1000,0.2000,0.0100,2.0000
42,go,Hit,1,1.0100,"[0.0, 0.015571798169939453, 0.011899976345434663, 0.026408084929623276, 0.025583984935160953, 0.05677141021264888, 0.053541950968074146, 0.05861434856076453, 0.07619848051538794, 0.1143992869734307, 0.12142545415598685, 0.1031932798351506, 0.09412265042487664, 0.12165535255905882, 0.12737393429631103, 0.11627820549033976, 0.10375993435440567, 0.1074258986166377, 0.09364235497100946, 0.10110371884641553, 0.1302018306690226, 0.1445213310511908, 0.12575351538049898, 0.11309756715990438, 0.13233904945789865, 0.14846104517946962, 0.17866686701315235, 0.1799760641658846, 0.18813294838575023, 0.1882158061683571, 0.18700524075096497, 0.2232518815460188, 0.24725039054060569, 0.22558831740865729, 0.24325358191860097, 0.23448984900218992, 0.2285340341239652, 0.19727490946117657, 0.2035843701586081, 0.15442507195974906, 0.2045267579632425, 0.21862831392216442, 0.18177346429256125, 0.19738256520310363, 0.21627763740748213, 0.2082750370373301, 0.20669759709439486, 0.18259297161641053, 0.2031394736247163, 0.22867582763349215, 0.21803822605188006, 0.19573579545872724, 0.239705067481559, 0.2355154792829547, 0.24051309750477598, 0.24144296333423154, 0.27499911907453034, 0.2523126576559933, 0.2590689737232976, 0.23923815470008217, 0.19763954432953734, 0.21955932571719997, 0.21979774596633453, 0.24835859313542324, 0.2650900105414277, 0.2876826059103451, 0.28099747795833685, 0.30497602692300113, 0.3013002327085737, 0.3237970549501576, 0.3631806861934839, 0.31767942320802695, 0.28498484247904543, 0.2972939321285589, 0.315825942596683, 0.346501758745052, 0.3294378907415097, 0.31034956429465915, 0.3111508522805761, 0.3043522275930843, 0.32817003123308597, 0.353965176831731, 0.3724803339617083, 0.40845839900465564, 0.439927388599106, 0.4434662364618303, 0.4680271713683001, 0.49224152423956935, 0.48702820934737423, 0.471901482063172, 0.48042404188291016, 0.5005566157946955]",False,0.8000,0.3000,0.5000,0.1000,0.2000,0.0100,2.0000
43,go,Hit,1,0.5200,"[0.0, -0.006302798755396029, -0.025318680018707566, 0.001673565174662217, -0.001270286683534596, 0.027379666214957757, 0.01710793763141869, 0.04975616019033348, 0.05299992106427269, 0.11667541189742266, 0.09755860892128637, 0.13607190733034852, 0.12517500297200754, 0.15489640306011843, 0.1381375502722663, 0.1807473953355992, 0.19347294266513282, 0.22209042521922814, 0.22015200503732396, 0.25401332002005605, 0.28738607686716633, 0.30274012941212375, 0.26293936938940987, 0.27090115121403924, 0.2879663363903455, 0.32473782004135987, 0.3426757357520013, 0.357084995789966, 0.40316361268645357, 0.4129086577836231, 0.46057352757588327, 0.4713276205105101, 0.454436457770775, 0.4742445502431897, 0.4509880714838433, 0.4520880565309111, 0.4992329717119977, 0.46271417123506947, 0.468793792393013, 0.44498415624254073, 0.47168127737686333, 0.474711273217574, 0.5010827805672244]",False,0.8000,0.3000,0.5000,0.1000,0.2000,0.0100,2.0000
44,nogo,Correct Rejection,0,2.0000,"[0.0, -0.00038838457098845603, 0.011197891556191115, 0.02871694016334024, 0.014340050803164282, -0.015979697749907887, -0.013732878454926729, -0.02863469069446056, -0.005993965907335114, -0.010625566781157392, -0.016557794474480338, -0.02717399926082041, -0.022887043950275333, -0.018959323375842826, -0.01657405174494565, 0.010917370784069909, -0.017895157948927445, -0.0007555532789667863, -0.024695747597746318, -0.025356362384515704, -0.031585931859262326, -0.018252338746414448, 0.0035900786301169135, 0.01118600007347301, 0.016350461901063623, 0.01669607552962383, 0.03304704574300063, 0.020080823549709113, -0.007598770378750341, -0.029240897132289456, -0.039716721749762735, -0.08237322677834516, -0.10487016737444618, -0.07193192371995495, -0.09552986570471562, -0.06367649368459588, -0.0745816649932224, -0.0953593595274359, -0.09492833493944003, -0.11509836349188735, -0.08520870037510479, -0.049408634055726285, -0.04687344454055578, -0.0198676399030001, -0.029435954217114854, -0.012480378754540954, -0.042707226617413774, -0.02692268537017488, -0.002046633359207753, -0.004479569184674983, -0.013397210552197652, 0.002183845233042759, 0.006489187847472092, -0.0025318848827355156, -0.01804961853813006, 0.0024252203387240302, -0.018270287891206903, 0.022710149546478285, 0.029826128349564978, 0.0159935459422197, 0.018169479023933725, -0.010207483395709885, -0.01782020035972951, -0.01573374778366997, -0.024546734110500207, -0.03657342410614052, -0.016374248934906764, -0.028953101950949193, 0.01229140580505073, -0.0284273456132348, -0.04084639562555675, -0.11242525730587416, -0.08876633769573639, -0.07975018913033449, -0.10637299480472057, -0.109867270721901, -0.13840334166796406, -0.1465485069298692, -0.14945202436746557, -0.1789204016562724, -0.1949263404435254, -0.22468057083816703, -0.22494427619557572, -0.2192709604246125, -0.22493775427880486, -0.23653106509564795, -0.27542001424391216, -0.25097332271774797, -0.25779451638835454, -0.24606681615886744, -0.2324039213118192, -0.2269770670430475, -0.2511780024612496, -0.26598231944039924, -0.2646777416920808, -0.23151437556929, -0.2559175054707811, -0.24455644839076207, -0.2606959174886717, -0.27802084736218563, -0.27874461540831363, -0.28888405334738354, -0.30715884380026204, -0.33442758245752985, -0.3678606890337849, -0.3610753630302782, -0.36808379206607844, -0.3826163987312466, -0.39466289144806693, -0.3791692692219368, -0.4171855420524364, -0.40196012967485645, -0.40029717053647385, -0.3990916537789303, -0.4194256892421262, -0.4295311671358283, -0.4004390027573719, -0.41753611996032536, -0.4069106559640633, -0.4150733915579119, -0.40823662888527273, -0.40944162080649965, -0.4249686044241951, -0.40608312971651367, -0.37030218564793543, -0.36750284895249835, -0.34617175857015087, -0.3562410973692401, -0.389263487602993, -0.35621037515791654, -0.3590477381027393, -0.33199930226267027, -0.30493434007554154, -0.34154610162245375, -0.3506850858160652, -0.3643348530946144, -0.33936875518399784, -0.33653215778059303, -0.3360519101569723, -0.3137607364431929, -0.3123216542571856, -0.3434171344867671, -0.3244478482727618, -0.29755383291956433, -0.3114717526861375, -0.32134254920211647, -0.33125892936181134, -0.33777992872843465, -0.2971941152990859, -0.25692102448562415, -0.25015283306943725, -0.2527275680202534, -0.2444547701141908, -0.23668070599201385, -0.22743884760680852, -0.2294225034720392, -0.2167257180091019, -0.21068272180006944, -0.19457483703759662, -0.1915363334650072, -0.18612577186180654, -0.1753315182573901, -0.20976598973769914, -0.18496918501471557, -0.17233140372190592, -0.19310937829925773, -0.2237145357777975, -0.24669640553320152, -0.23226615097193495, -0.2151310530272696, -0.2462938169723786, -0.2543151368474358, -0.2836208531357628, -0.253344491604101, -0.26790325965221107, -0.2602186077810999, -0.2589314007981356, -0.25095728494936564, -0.23063814321556478, -0.19264992295326056, -0.19537439653953143, -0.22807483168310025, -0.24388546753044849, -0.2207089337704358, -0.18471613524101738, -0.18673017263352304, -0.16224353837625863, -0.18220449806318345, -0.2170909687233306, -0.2375047539523205, -0.2551191863712696]",True,0.8000,0.3000,0.5000,0.1000,0.2000,0.0100,2.0000
