trial,stimulus,outcome,choice,rt,trace,timeout,w_s,w_n,threshold_a,t,noise_std_dev,dt,max_time,affect_stress
0,nogo,Correct Rejection,0,2.0000,"[0.0, -0.02785178260329373, -0.02916465701619461, -0.026269053466185535, 0.0007968236044172752, 0.02253178516449776, 0.019446316144533994, -0.0004434023777374549, -0.007789473894545469, -0.005531687754875605, -0.029653492624058905, -0.058263953565156956, -0.08106398535466817, -0.08733729596986455, -0.10829241007687115, -0.13392230797384722, -0.14050855802233317, -0.14848273090811545, -0.13253169014279698, -0.08458823065058127, -0.06951451469445684, -0.067481063545895, -0.05622252988714859, -0.056952426314510474, -0.059441129140791374, -0.05833180954166485, -0.058952800549681605, -0.06993968250796256, -0.10506553214914435, -0.07920508561593195, -0.09386426134790582, -0.05123986640230238, -0.027648582961972784, -0.027319183757316318, -0.0071306308009761975, -0.019111073781694174, -0.007573047425678148, -0.011980760043780195, -0.016295932973332216, -0.006134337194562061, -0.03814407483140006, -0.06103352785365941, -0.06894515982952797, -0.09454141712788744, -0.1053443079048373, -0.1094966403406363, -0.16323650994833822, -0.17235693876595407, -0.16196560394564458, -0.13457238796817794, -0.14786324570864995, -0.13389889439276934, -0.1668272724474077, -0.16263348579143747, -0.14051463825263197, -0.13503208805010708, -0.1393424503680389, -0.15072262794621594, -0.17285723657303642, -0.1962100530640389, -0.18381852079152403, -0.197272029555014, -0.17522227271505786, -0.18891053402499053, -0.22305056603898626, -0.2624498671902158, -0.2685226021263871, -0.2790989534120175, -0.28563689134609815, -0.2831671676010217, -0.2740854642546801, -0.2838332913658948, -0.2597740593774027, -0.2638632039198664, -0.2689859679775258, -0.2626041900273358, -0.23294433944303702, -0.24444136601296038, -0.259765773602889, -0.2675203253990294, -0.2535327887143775, -0.27116016810039306, -0.24354947987419515, -0.2474495131462904, -0.2622141217065945, -0.28138842930909214, -0.25516400388984406, -0.2892216737679359, -0.2765247459719298, -0.2961244731753412, -0.27126445744092176, -0.2789773624998698, -0.28110744610477373, -0.3112006463382717, -0.3459137133118527, -0.33831470510687617, -0.3524359357755377, -0.357338617993612, -0.364677662282018, -0.34044490405710887, -0.3443878299807892, -0.32274151048360783, -0.29712953613964366, -0.30915261518286485, -0.3360413073523707, -0.3771280694267949, -0.34936960940420525, -0.34619047081946924, -0.328970959730585, -0.2912321884738312, -0.2917055455024587, -0.31667850814557724, -0.30836271164457035, -0.2831690839651813, -0.29091931108328534, -0.2879733575904831, -0.3120530408248545, -0.34403907954328944, -0.35193776451818126, -0.3590011934142213, -0.36530351530095373, -0.38963361698160254, -0.4083589489259906, -0.3894148599700728, -0.41066368570525613, -0.4053357429693534, -0.4235379490765649, -0.4153680771928057, -0.38359954406742663, -0.387781039299363, -0.37456068695007416, -0.3511725093525949, -0.3498508346544036, -0.2980950786614018, -0.2855372484275293, -0.27974585225416293, -0.269161021206351, -0.26723111042232695, -0.26123980498078003, -0.28481968072575997, -0.2936829298592352, -0.3003554776514347, -0.28266005800596083, -0.31812747714587647, -0.33184441051505925, -0.3338794926420311, -0.3288399436525722, -0.30893708883296267, -0.3552430085914105, -0.3808980096080076, -0.374498153864793, -0.3861239945982134, -0.35447157777670013, -0.35489168251233094, -0.35321091363481644, -0.3552518977653832, -0.37040277546079475, -0.3773326915305993, -0.39565171363397567, -0.4287403396145015, -0.41583095945979615, -0.42053280116787495, -0.4190309176167809, -0.43296195729433257, -0.42401966553194975, -0.4675223741979383, -0.4950889158685583, -0.5117340727122582, -0.5144561563398474, -0.5304298688892227, -0.5189727233062458, -0.5321426550734735, -0.49615973468281444, -0.5029856870238179, -0.5118326569038981, -0.5493197090097557, -0.5607302875490688, -0.5854427527040482, -0.5891571385400967, -0.5664754767276909, -0.5529826919931347, -0.5583735771727523, -0.5242101322053291, -0.5587065327307957, -0.5538823432127399, -0.5382499730795706, -0.5694573794239992, -0.5653961123440349, -0.5773069029358208, -0.5927879561969349, -0.6278887160118665]",True,0.8000,0.4000,0.4000,0.1000,0.2000,0.0100,2.0000,True
1,go,Hit,1,0.3100,"[0.0, -0.007771582528912274, -0.01568607354001932, -0.023393719541996552, -0.002067931228472382, 0.02340881160328064, 0.020151129656323902, 0.015079563142157817, 0.05629610030876842, 0.04435601040581151, 0.06960812694043605, 0.0690587582977374, 0.044131787257812576, 0.032067642435296, 0.03370252395933073, 0.030136621541676737, 0.034109390791986945, 0.04102904012127591, 0.04345216565072682, 0.07162753474246591, 0.09387617554570157, 0.1074335472999142]",False,0.8000,0.4000,0.4000,0.1000,0.2000,0.0100,2.0000,True
2,go,Hit,1,0.2300,"[0.0, 0.032723553598766476, 0.041673948312573164, 0.031339432067245265, 0.07135053664672546, 0.04571096557806543, 0.044886089207454564, 0.03759959574972482, 0.03203240277333776, 0.03542804674706652, 0.05409977283133173, 0.0641034702548384, 0.07841950507720417, 0.11022424923553514]",False,0.8000,0.4000,0.4000,0.1000,0.2000,0.0100,2.0000,True
3,nogo,Correct Rejection,0,2.0000,"[0.0, -0.01079240641986351, -0.023856535513896743, -0.07821873753846906, -0.05906193557770738, -0.03729681897385409, -0.03834456535383213, -0.057419934322464, -0.05521926370809756, -0.055521616538055055, -0.033505093882581855, -0.04286982342918826, -0.05592378926518961, -0.08739850652681314, -0.06667604447607661, -0.06588217509793488, -0.09711393505077828, -0.09132040501814602, -0.09207952093388477, -0.09030548055731258, -0.07726244778433408, -0.04285618981840592, -0.03908792680420769, -0.05297276821706491, -0.07084754481794715, -0.0894194268498094, -0.0736130362623815, -0.05382379226324305, -0.014389084435452872, 0.024471843322982377, 0.0016456637226190986, -0.01914091211414721, -0.012292504343793073, -0.05869416799354167, -0.0691206587911501, -0.04538679681042783, -0.031950809553033, -0.025841879971583038, -0.01115171908052392, -0.00026341823901805846, -0.017230748334847987, -0.0145343063526431, -0.040235555864593694, -0.07009025300478847, -0.0467740544572946, -0.02015654874746704, -0.014919076441422876, -0.032723603241297895, -0.050741639003054145, -0.04612118155472493, -0.02966565793351916, -0.025350942167010483, -0.018852609721284184, -0.0256814961153478, -0.017475334436985283, -0.052000869907253854, -0.07855834089079511, -0.05261923906298951, -0.07575397422437004, -0.08042695032055129, -0.07301745499762059, -0.08133979021516388, -0.09048257071163451, -0.09348730698056093, -0.12375142963642127, -0.14730312200034068, -0.1532405051401851, -0.14307468944035076, -0.14020441012923343, -0.14749342595327794, -0.14888843820378297, -0.14446755981988188, -0.14952758758146062, -0.15788486584213132, -0.13448713410346816, -0.1168503046450771, -0.10744429237272657, -0.11279547992478085, -0.0992271265023075, -0.0828303743429469, -0.10205965471937867, -0.10448587352978658, -0.07954920537826111, -0.10266223766018553, -0.05161055053813934, -0.040249787966324196, -0.047569479764625375, -0.03524014723556788, -0.07794611477509761, -0.07101246861929905, -0.07354847857757585, -0.08228984408999795, -0.08341346123305216, -0.040057784568365104, -0.052361248538784044, -0.045178712316251375, -0.02458506910843088, -0.05361613990487177, -0.033187818924517776, -0.054402945551489564, -0.08351562564536104, -0.13151788464589612, -0.08661211905913128, -0.11213918384008509, -0.12342600219928582, -0.12097968643881639, -0.14167373948407153, -0.15057391519973362, -0.16759201641219876, -0.175320562241997, -0.2110712225503595, -0.22169968568335097, -0.22171947032521666, -0.22609648575248156, -0.23202180173373066, -0.1866617364019575, -0.1748501191744337, -0.18499146785834367, -0.13283581422374297, -0.1118648179918999, -0.11271617240694454, -0.10977351349627276, -0.11084122923165973, -0.1216085558598711, -0.12742703733689692, -0.12151428785450337, -0.1403356115378549, -0.12601305633269075, -0.12020486052835175, -0.10678931367212918, -0.13139426764104542, -0.11852414552024092, -0.09743395642931846, -0.12274611699595125, -0.13364794283156445, -0.12337823808909693, -0.14309621604942513, -0.16658308606836084, -0.17616243519282063, -0.13654533974706018, -0.11426041768650674, -0.13830697231392428, -0.12877208581739666, -0.14168709899901125, -0.128375552585618, -0.14242934295481674, -0.12474991356850723, -0.0992980887203154, -0.11295287492650152, -0.12855768807196072, -0.13252982658073248, -0.1558510971953249, -0.19820178329159044, -0.20830578178475123, -0.2129864728299132, -0.2027933618915394, -0.22843166457809685, -0.23491364261354286, -0.24164406249963216, -0.24961118607797889, -0.24771376435114695, -0.2528698720548224, -0.23447854331509924, -0.28530189227713104, -0.2859848358043284, -0.24122039008842425, -0.26124194896473185, -0.272444950604448, -0.283329206073187, -0.28814426301550683, -0.2653028571678153, -0.25003590842657275, -0.2052201702178308, -0.19183839236194952, -0.1910831515311741, -0.18732650475949897, -0.20760721848662853, -0.16046894762205322, -0.12663048786497863, -0.1176230097501298, -0.11192263605541647, -0.09363957122162038, -0.10238363534223346, -0.09607185507277109, -0.07061205260635948, -0.09321783244764445, -0.12721684192663682, -0.11193051900058514, -0.1288029272942097, -0.1330117957294441, -0.14485181383506526]",True,0.8000,0.4000,0.4000,0.1000,0.2000,0.0100,2.0000,True
4,go,Hit,1,0.1600,"[0.0, 0.02973092639445126, 0.039280469075855584, 0.03278639362934718, 0.05371577122324839, 0.09541326785093424, 0.10786899806019026]",False,0.8000,0.4000,0.4000,0.1000,0.2000,0.0100,2.0000,True
5,go,Hit,1,0.2900,"[0.0, 0.004303425254288472, 0.0009443532795681848, -0.017913289117013016, -0.002364719671353436, -0.021861251050599072, 0.012755691076783718, 0.022237820394044927, 0.0169156134927985, 0.001265461929093662, -0.017767861852841557, 0.012790148034502007, 0.01777940698175683, 0.05636423596493616, 0.06011696273859672, 0.07938438527944636, 0.06984400854045619, 0.08127849642034589, 0.09050399091424903, 0.11622977618241725]",False,0.8000,0.4000,0.4000,0.1000,0.2000,0.0100,2.0000,True
6,go,Hit,1,0.1500,"[0.0, 0.014464919074352118, 0.05119644004886598, 0.0673828538796312, 0.09631070821561236, 0.10578300987046972]",False,0.8000,0.4000,0.4000,0.1000,0.2000,0.0100,2.0000,True
7,nogo,Correct Rejection,0,2.0000,"[0.0, -0.02549931943113472, -0.031609690544566374, -0.019243858563809797, -0.019558584135536648, -0.04473409130052231, -0.04593032305782068, -0.0253251463353758, -0.030505308798694078, -0.0599431262657384, -0.03835736296255966, -0.027105192177487712, -0.04218078273004104, -0.06937677142791962, -0.10449282792902141, -0.0884360064156828, -0.08611863133396969, -0.07790857335916497, -0.08105899864057742, -0.09718702209506651, -0.10844555878565941, -0.07395760328542653, -0.08747450900036716, -0.12398349680623746, -0.13777596521155383, -0.13561800305076263, -0.1213551028503929, -0.1364634874533355, -0.13627089639105738, -0.16331997187150105, -0.18173010616567092, -0.1598085594288523, -0.12678841596053259, -0.1404897641933199, -0.13523352623834597, -0.15703953708932558, -0.17358709090441327, -0.1511163630443366, -0.15808165978842975, -0.21334421694719286, -0.1921420674456713, -0.20707679081743224, -0.22986416135620458, -0.22109633958042574, -0.2139442368446006, -0.2532632320152493, -0.24839392799498586, -0.26642586152962305, -0.2784490883789037, -0.26374236593828143, -0.2781933599200349, -0.27495816935501227, -0.30851581758026514, -0.27729233412010257, -0.2616016267227715, -0.2927369956030771, -0.27205842138583686, -0.26185412215751286, -0.2218121058142466, -0.2425811354577545, -0.2581894333503433, -0.3098249478383477, -0.29503460842724505, -0.30338591593082825, -0.3196420815098075, -0.3614409569219521, -0.35272003967760174, -0.3513259217622202, -0.31430093210972376, -0.3407891216504073, -0.3383132769482407, -0.31454950114761154, -0.356202459341433, -0.3636982131581968, -0.3964599974449785, -0.406403966937239, -0.38414038617213675, -0.39454150916682695, -0.4082430392581595, -0.4130638305818048, -0.43819011416845527, -0.4533835007680695, -0.46002408765555053, -0.46857821701259433, -0.43078373741052983, -0.44948620755442253, -0.46610356430188743, -0.4502103477744224, -0.46095647544505913, -0.44116731006914833, -0.4401472407928924, -0.4073583192383486, -0.36993548294970935, -0.3730184308343536, -0.3508786869809434, -0.3923430544940494, -0.3680305293131164, -0.33958192766606043, -0.34956730203070135, -0.35795326460668203, -0.3534617052268897, -0.36247723130893683, -0.36478682977153915, -0.35548197170884765, -0.3529979422442131, -0.35066437507733755, -0.33864639735415447, -0.32669362330968477, -0.32857986496655756, -0.31310285670915217, -0.3100012102251976, -0.30370703883920025, -0.32218569631737126, -0.3288900970685146, -0.3314960687669079, -0.34891621120972843, -0.35688559137968595, -0.356478577086981, -0.3865750232725292, -0.4173093680832205, -0.395943050538119, -0.36319396988608665, -0.3832938026434447, -0.3663378319687161, -0.371596081328211, -0.40833896624608784, -0.4453484410663074, -0.42697054193928197, -0.4359987401634809, -0.4317589684592611, -0.45572040571176275, -0.4689586679160541, -0.4689492114531244, -0.48044766470401234, -0.46727835394411654, -0.4756193727465424, -0.4553992896895935, -0.4895544598384745, -0.5151658171775673, -0.5460055462121896, -0.5304775151223847, -0.5086132703598668, -0.5234408812101967, -0.5555903232416342, -0.5203968727302676, -0.5043919102761286, -0.5079646900750806, -0.5416095128175094, -0.5796943478917803, -0.5519975120729568, -0.5344207464201979, -0.553318892234186, -0.5473251027401473, -0.5475313182494358, -0.5362396555159237, -0.5574487329559754, -0.5400834064734155, -0.5449601432619245, -0.5312827325311663, -0.5077393889483623, -0.49798363298713916, -0.5035725795879766, -0.49761869431781336, -0.4654964489277641, -0.4819383292166386, -0.448905475078038, -0.45465347417144664, -0.4672952798134597, -0.5092569269752375, -0.4927885881960233, -0.5020865983196364, -0.49560350961889155, -0.49218554474516263, -0.48633539367098133, -0.5003901172772299, -0.5180330558589061, -0.5077135198277104, -0.5037022501901665, -0.5407022758146044, -0.5410116897457614, -0.5429377305337635, -0.5547974791217504, -0.5442576626875228, -0.5650147020401955, -0.5248801168362652, -0.5261922009806693, -0.5031904889184974, -0.5132215859230418, -0.522107617935233, -0.5115458029289728, -0.5188657924095912]",True,0.8000,0.4000,0.4000,0.1000,0.2000,0.0100,2.0000,True
8,go,Hit,1,0.2600,"[0.0, 0.011595825773501373, 0.01650177251219877, -0.005352500400880561, -0.017299502769453245, -0.006174850636590547, 0.0053305897027483735, 0.021300223087671398, 0.013665449687063853, 0.03837932544251209, 0.04747209470865282, 0.05675625510868845, 0.08624771081726385, 0.07340649917556961, 0.0717439589884933, 0.07536044051320703, 0.1036594357570218]",False,0.8000,0.4000,0.4000,0.1000,0.2000,0.0100,2.0000,True
9,go,Hit,1,0.1700,"[0.0, 0.017293162973781456, 0.011292479129092044, 0.03222050021212547, 0.05155564722935323, 0.06320237584945843, 0.09847299584762033, 0.10092758627742156]",False,0.8000,0.4000,0.4000,0.1000,0.2000,0.0100,2.0000,True
10,go,Hit,1,0.2100,"[0.0, 0.003142364216354422, 0.01999409095059429, 0.03701308478354062, 0.021605372564536693, 0.014354482640567701, 0.021047900657831086, 0.05723647895615548, 0.04923052143955847, 0.06854543600147722, 0.08866215670412034, 0.12468737644826075]",False,0.8000,0.4000,0.4000,0.1000,0.2000,0.0100,2.0000,True
11,go,Hit,1,0.1400,"[0.0, 0.012363631828525009, 0.05004819570314602, 0.06914508686408939, 0.11716794403196962]",False,0.8000,0.4000,0.4000,0.1000,0.2000,0.0100,2.0000,True
12,go,Hit,1,0.2500,"[0.0, -0.006639860571100166, 0.009928103009676425, 0.01622675190883949, 0.022604947150184393, 0.03535860397039637, 0.028327210960870104, 0.04458544473273043, 0.02282559946893216, 0.0475405789636187, 0.06683360302035339, 0.08139062284125724, 0.09686290374025168, 0.09385535487104803, 0.08021214564098339, 0.11340268724594936]",False,0.8000,0.4000,0.4000,0.1000,0.2000,0.0100,2.0000,True
13,nogo,False Alarm,1,0.2000,"[0.0, 0.01669136958882511, 0.01062257348081824, 0.05759325596534772, 0.06554054675979015, 0.08448639393724763, 0.07573840304685645, 0.07087286795058315, 0.08320904106185577, 0.09860981373121927, 0.1284404229426397]",False,0.8000,0.4000,0.4000,0.1000,0.2000,0.0100,2.0000,True
14,go,Hit,1,0.1900,"[0.0, -0.006748310527855126, 0.005986563229153497, 0.04363705202884268, 0.03931004288320489, 0.06408706025217237, 0.03145462799023666, 0.062456289652166166, 0.08584866160186021, 0.12641970139439557]",False,0.8000,0.4000,0.4000,0.1000,0.2000,0.0100,2.0000,True
15,go,Hit,1,0.1700,"[0.0, 0.05036185591548246, 0.03520137925835749, 0.05721094560700169, 0.06691591734022458, 0.06325806181317921, 0.09295716029592387, 0.1157004771278059]",False,0.8000,0.4000,0.4000,0.1000,0.2000,0.0100,2.0000,True
16,go,Hit,1,0.1800,"[0.0, -0.002617432317254422, 0.012945674168854312, 0.02482987574410292, 0.021069470062591883, 0.007173116361075541, -0.00045205625798108023, 0.031072675897579678, 0.10268238377049099]",False,0.8000,0.4000,0.4000,0.1000,0.2000,0.0100,2.0000,True
17,nogo,False Alarm,1,0.2300,"[0.0, 0.011468821660835425, -0.004640152883877452, 0.022232214914080638, 0.009655891413854529, 0.03187969119754495, 0.016977802432366476, 0.03747457502583244, 0.07446772950074473, 0.09662768481345232, 0.07050407997680867, 0.05406355645772859, 0.09403376666562002, 0.10470326026392161]",False,0.8000,0.4000,0.4000,0.1000,0.2000,0.0100,2.0000,True
18,go,Hit,1,0.4300,"[0.0, 0.010498612105418862, 0.015015460835547209, 0.01896721426233569, 0.006043132725402894, 0.0157938906533512, 0.04028612094518763, 0.018984991877508663, 0.008675021085891407, 0.011221123491697318, 0.011026497865312315, 0.013066546945967317, 0.009297748743989507, 0.021425090399478087, 0.05691211197434774, 0.06595284713913425, 0.049067418145974276, 0.03575254033959597, 0.04278441555540344, 0.06599376150832834, 0.04805819987903479, 0.05126085953998404, 0.053012272325923177, 0.05685918442908185, 0.07377218977273155, 0.07960809806458283, 0.053404566835750594, 0.03992244158803815, 0.05331950533154829, 0.04723377952194373, 0.08121597790672164, 0.05332671030219927, 0.09885909103676083, 0.11928975428939229]",False,0.8000,0.4000,0.4000,0.1000,0.2000,0.0100,2.0000,True
19,go,Hit,1,0.6100,"[0.0, -0.002245191614262258, 0.00024027197765613077, -0.0040232723140664955, -0.03181114725959333, -0.028357948690209866, -0.020010572896393207, -0.015675335007686825, -0.01548079216461869, -0.0097358448628483, -0.031201135956107583, -0.015861741423063992, -0.0177001813821389, -0.012220310097661393, -0.030645963796931942, 0.008478368176401109, 0.021807426657545297, 0.029307673444184647, 0.03802952406574419, 0.023286000402351455, 0.019121573249696197, 0.013918597066892423, -0.01599052293627722, -0.045257893602356755, -0.032923414524956354, -0.03512206498047208, -0.039538426554270166, 0.0018838630465755693, -0.01432452760281458, -0.007504889565026689, -0.01773773413530539, 0.0019377981495057109, -0.011402235516432435, 0.011547376886449023, -0.005911691946483524, -0.015869721906596846, -0.03663557214277206, -0.039489037623153915, -0.04403970855685435, -0.04194371613362803, -0.005664415911437293, -0.011798538523659002, 0.031210006768670195, 0.016503312430317663, 0.024591113999380874, 0.03971203659657899, 0.049410694697993994, 0.02965052259442358, 0.060806246468222885, 0.037985077039245835, 0.06601813140769737, 0.10228861858050961]",False,0.8000,0.4000,0.4000,0.1000,0.2000,0.0100,2.0000,True
20,go,Hit,1,0.2600,"[0.0, 0.008793692581516336, -0.009570828903184872, -0.007045716730792132, 0.009472403302795775, 0.03922637499641955, 0.040657947788880676, 0.028104551989819853, 0.03762539873976473, 0.02808381365056107, 0.022017041069775384, 0.014651485790627332, 0.01977261423573413, 0.07243190129660163, 0.07716132955712277, 0.05870443333372552, 0.10321135437835444]",False,0.8000,0.4000,0.4000,0.1000,0.2000,0.0100,2.0000,True
21,go,Hit,1,0.2100,"[0.0, -0.014203267895156736, -0.011799489935862748, 0.020978583815048923, 0.03864441143162321, 0.07009556781410675, 0.06157696411343849, 0.029263440856107673, 0.04644812739594793, 0.07402315431507578, 0.06812673943676481, 0.1244889146025946]",False,0.8000,0.4000,0.4000,0.1000,0.2000,0.0100,2.0000,True
22,nogo,False Alarm,1,0.5200,"[0.0, 0.003607183914151497, -0.05283875529426388, -0.03431367015279435, -0.006006482240548845, -0.006181074078187456, -0.03340899929238687, -0.025418952488362005, -0.02187254517186814, -0.06620227634820183, -0.06797846187726844, -0.03339983715718918, -0.06994692529830142, -0.05132829817192766, -0.04014623320346622, -0.036239447170967415, -0.06109683424575847, -0.07134498904708711, -0.06627597404050731, -0.05835832660210355, -0.05272703826644023, -0.03795062224378362, -0.04226841396753666, -0.035655510691323736, -0.06090153156456135, -0.057743972060428014, -0.04757742768933343, -0.036146028496163454, -0.012542762428539318, -0.017350345646817436, -0.013923484236918226, -0.02193072389023788, -0.01014874989569449, -0.003723222743673215, -0.0017538725023734047, -0.0065160053503914225, 0.016153730948745965, 0.03452610211898899, 0.049559914983568557, 0.05003892489262754, 0.08409379545395171, 0.08938530336782816, 0.11570880955097758]",False,0.8000,0.4000,0.4000,0.1000,0.2000,0.0100,2.0000,True
23,nogo,Correct Rejection,0,2.0000,"[0.0, 0.0033962393624404346, 0.027694590985089272, 0.0611419010297809, 0.049166040905326, 0.055930948009685136, 0.04329425970851399, 0.0368977702186646, 0.042237665091882245, 0.020152523851285017, 0.03004527488468341, 0.015038582250774094, -0.01808221931403754, -0.020624384883119344, -0.014173822115404277, -0.02490413735767595, -0.023742372356534962, -0.0303913568883284, -0.041988026635112904, -0.08386485142673353, -0.11724886843118937, -0.10155465859978667, -0.09820945251911285, -0.09782804489536921, -0.12183274081094449, -0.1287821700884112, -0.1454614986981201, -0.15967562559257295, -0.1748387134176936, -0.16636614102956218, -0.16195144654975116, -0.20723680796251048, -0.2173109521779925, -0.21351209093511545, -0.20909074064494482, -0.24461760618356798, -0.25604292055695094, -0.25155489115422186, -0.253558863660309, -0.24996978122353225, -0.27620212448977277, -0.26734400982665835, -0.29707103156908066, -0.28178012910462275, -0.23188185585178242, -0.2650003824827818, -0.2946864235983952, -0.3440835758265358, -0.39190398209352717, -0.3822015157172386, -0.3851324552400575, -0.3736053462057555, -0.38138677662201886, -0.41070682965917155, -0.44684962984515875, -0.46004572657239406, -0.44019471252675096, -0.47753682170343353, -0.456040257945316, -0.4217534234377901, -0.4301568976660183, -0.41572157937210286, -0.3996339922255408, -0.385819403372811, -0.3881005701340739, -0.4245130444050006, -0.44000276120558696, -0.44256706562686976, -0.46342529364624974, -0.46989013131991825, -0.4682675841178662, -0.4941112551655678, -0.5151554378618355, -0.5180237895721612, -0.5550859143729707, -0.5917426238802388, -0.6196338437671434, -0.6511544009977984, -0.6453471304651174, -0.6473600395843251, -0.6246763896432389, -0.6050497618282128, -0.6354305969028949, -0.6325073874282346, -0.6226862354738227, -0.6289620405791804, -0.6206418709573069, -0.6575474092159906, -0.6349283271030262, -0.6439618701880041, -0.6724157086328995, -0.6830630497841726, -0.6719701744610895, -0.6489349974680912, -0.6697808096081684, -0.7025920009003702, -0.7183934467817862, -0.7272072878931902, -0.7431557197717122, -0.7255161548974747, -0.7206928697197453, -0.7421066728571921, -0.7623116850320161, -0.7686779098463074, -0.7623344328345273, -0.7479707684564665, -0.7044105025902995, -0.7216068912680215, -0.7417857897150073, -0.7367460882588639, -0.7125420319734909, -0.7286606656420435, -0.7041046589614338, -0.7659957603425886, -0.7498024299550189, -0.763098985267598, -0.7498288935210262, -0.740661231336805, -0.7446107906387083, -0.7468204466197482, -0.7589721826922736, -0.7183502371078958, -0.7514651206026237, -0.7966846120325352, -0.8040800843338124, -0.814053961503415, -0.8002534658752991, -0.7915122730905957, -0.8101398220814234, -0.785405616869277, -0.8277415698799493, -0.8307151013514066, -0.8189405941455093, -0.8110787463778317, -0.8060411063820442, -0.8433143880197358, -0.838920675499613, -0.8265387260905724, -0.8312583261007839, -0.803387709390459, -0.8166294642628884, -0.8019011842989892, -0.7992647688106121, -0.748743668206319, -0.7613215216088561, -0.773297601328525, -0.781833583208693, -0.7836689643170273, -0.7762875729213307, -0.7806932996202309, -0.811373645813718, -0.8247877711223609, -0.8406022207736221, -0.8274128758756123, -0.8192725067774893, -0.8004047973328935, -0.8207206850829981, -0.8284072459455292, -0.8610235736250532, -0.8435490667310556, -0.8660385092550115, -0.8989544374066792, -0.9184119926159046, -0.8988269487186862, -0.8577569084783412, -0.8552674043066923, -0.8748830176612435, -0.8797422132590169, -0.8722787468820314, -0.8927619508974345, -0.8870997408370165, -0.9170233417853898, -0.9428608045160678, -0.9518438881062418, -0.9956898894681108, -1.0171287681744456, -1.0266161240000353, -1.030861587471882, -1.0504513488982694, -1.0433362143387868, -1.0377005149569476, -1.045072120108257, -1.0590274192688403, -1.048281315717547, -1.0245759540774506, -1.0074085611804373, -0.9934449140806134, -0.986827851747263, -0.9981282321300813, -1.0073194917336314, -1.0248890552761603]",True,0.8000,0.4000,0.4000,0.1000,0.2000,0.0100,2.0000,True
24,nogo,Correct Rejection,0,2.0000,"[0.0, 0.013092830292394499, -0.007220836022442527, -0.029769677153774578, -0.007553023891575299, -0.015571001993123106, -0.04725816741830356, -0.043737555073013835, -0.04398178654682673, -0.03909061532187359, -0.04716237978328109, -0.05216582993030204, -0.049513542529479954, -0.07331028614055929, -0.04237106282033929, -0.0636173870928712, -0.07140458586186292, -0.08464251055029583, -0.056761861065493024, -0.08722834367491612, -0.07672954167632928, -0.04695568277354146, -0.06047801269529049, -0.04624946788377204, -0.04596084551087232, -0.06251851944077115, -0.061887584318052066, -0.03875596478360627, -0.021374483256769525, -0.03289840457996728, -0.03200908627317098, -0.05830227773310408, -0.029076232093939558, -0.07370893257716404, -0.0778044039640177, -0.042289379646445815, 0.009124791238995462, 0.004397127397028564, 0.0040426593973847905, -0.002132145642692365, 0.0007807003297403592, -0.0032652586053433827, -0.030760652827549678, -0.04330380706461499, -0.019222266303953572, -0.03952253156251836, -0.024109407339755543, -0.03018414104179099, -0.038266179390989766, -0.027993246499472886, -0.07235982767242177, -0.0784577807910629, -0.09122737553417003, -0.08417738479763481, -0.05243614447055437, -0.06724280688546092, -0.08845280475404435, -0.09166029590767913, -0.09865657668984339, -0.10308608057544294, -0.12443717679386142, -0.14375105589857518, -0.16635552867633419, -0.16942127043492108, -0.16863631511097102, -0.16857424212107847, -0.17444549108002333, -0.2130277643546697, -0.19007625828091396, -0.22737616546303338, -0.20276587984736033, -0.18697158440285122, -0.19577313776622307, -0.20670351132134068, -0.22871937343371448, -0.2193566979852333, -0.2396819500375025, -0.24567444724766582, -0.2732289846759391, -0.2586097048459171, -0.26830812338043813, -0.2573642734847892, -0.22504822126063362, -0.21952290976090272, -0.19857230343505308, -0.23294098455631326, -0.20926464749781554, -0.1614040455812414, -0.18318127469421921, -0.18069373459657598, -0.16987980530393434, -0.1609728619984398, -0.1729849166764593, -0.18645836577011557, -0.15744430001350831, -0.14824048132172776, -0.1358721243500996, -0.11835265637992064, -0.14740115260879322, -0.1633820655975572, -0.1813821123321621, -0.1841245635010658, -0.21461369121378576, -0.20416130880289987, -0.203530609201945, -0.2172459605199963, -0.22462403989960794, -0.22569955839870398, -0.2365758115228293, -0.245559849297512, -0.27252979329706317, -0.3121017618571172, -0.3253824246335202, -0.33645857369299004, -0.3703598537923024, -0.3590220684366379, -0.36827646022187277, -0.3902427218293725, -0.39576605829647965, -0.41401611712568553, -0.4232900519672148, -0.41686477521999443, -0.3992185173923314, -0.39637940211970396, -0.4009488354847791, -0.4186939578637625, -0.46974328547502453, -0.49872941416083455, -0.4813454594787745, -0.4727141969867543, -0.49788921681941767, -0.496456837297994, -0.5289365979284208, -0.5353040554861144, -0.5068270008963611, -0.5057043382434818, -0.5196887811097228, -0.5001773287648265, -0.48397151340576083, -0.4829879551860866, -0.48128149907441037, -0.4693924357932154, -0.498162175455796, -0.4984524060419481, -0.5051200480861983, -0.4895217817842719, -0.4932141414044783, -0.4951527805505639, -0.5055974943924927, -0.5195641235108751, -0.5240069274750335, -0.546443061989043, -0.5591049352438284, -0.5764334194120778, -0.5406911010480641, -0.5061018064155745, -0.500995593333203, -0.4879139421113899, -0.5007263922991151, -0.5046936072325532, -0.49245702105598343, -0.5120383984062745, -0.4964605644468554, -0.4835257521120392, -0.4967378193621548, -0.529947191691837, -0.525538180015994, -0.5141858473329752, -0.505121975649827, -0.49873174048308333, -0.4690114398092484, -0.4830316734332767, -0.5286037204457769, -0.5214089644398254, -0.5113979573672637, -0.5174315328805952, -0.5275415797581191, -0.5242674606144698, -0.5447043369613395, -0.5301802838986279, -0.5463458060424281, -0.5646714267413857, -0.5599655551946207, -0.5626445407037454, -0.5930156896869194, -0.6076512946249186, -0.6258101360138522, -0.6522419598695729, -0.6388071179535221, -0.6625113473386902, -0.6814357975297665]",True,0.8000,0.4000,0.4000,0.1000,0.2000,0.0100,2.0000,True
25,go,Hit,1,0.2200,"[0.0, 0.02366673131327706, 0.03568609582235837, 0.027822407101303733, 0.04917303357662062, 0.07005624110721462, 0.06323308330887538, 0.09334171748356505, 0.09328788465350993, 0.07251788651568743, 0.07278130446436469, 0.0872145885994768, 0.12689225532586546]",False,0.8000,0.4000,0.4000,0.1000,0.2000,0.0100,2.0000,True
26,nogo,Correct Rejection,0,2.0000,"[0.0, -0.002691072782507663, -0.03871599209086043, -0.053007904023641784, -0.018275159223953792, -0.04325997061308404, -0.066520638809255, -0.05950426548454943, -0.06918081690243533, -0.062278331799729, -0.0789003280253294, -0.08434380845119033, -0.07627044668921665, -0.05495658291087481, -0.023756720628037784, -0.053273143502603704, -0.05473753161128263, -0.061776645622882716, -0.05964591961256488, -0.08243077047914106, -0.09030508580222112, -0.08943097337435978, -0.08321924355680278, -0.07109505412233966, -0.07152166248689032, -0.05759714000454783, -0.12275915808953539, -0.11497678430020498, -0.11938072051460374, -0.1512681173834993, -0.12724871738895302, -0.13510225844661092, -0.136360453916725, -0.15326236463302706, -0.14769288951963827, -0.14588061909345582, -0.1515365999279737, -0.16282011945502037, -0.1753492121726417, -0.15748224858324994, -0.16366182811300137, -0.1652690142050333, -0.17335932382733849, -0.20905659255133072, -0.18825687857097745, -0.19493354230875706, -0.2001027516951959, -0.20389652552419002, -0.19585765180464224, -0.19600089258574624, -0.21704746842564318, -0.22059468439459914, -0.23878958990933816, -0.24518162120176634, -0.24062639107401737, -0.27392997154261983, -0.27277738926045025, -0.2767787904304471, -0.23909146647620497, -0.23375687172102796, -0.20832575488146332, -0.20672459094783527, -0.19898757649330423, -0.19818423800804225, -0.2204346084318288, -0.23662280130150845, -0.19523221871055715, -0.19295551894741206, -0.2153140496605216, -0.21786116353168916, -0.20880883413484586, -0.19675046968132173, -0.2108692508462671, -0.19396536485377486, -0.2134008549042444, -0.20493906303548445, -0.19623402900512693, -0.19013736519685506, -0.2137196538168396, -0.18195263274284534, -0.18607510183153878, -0.21184807551045967, -0.2186541674257821, -0.23769386714451854, -0.23441620553948564, -0.25979093975026213, -0.23974829698299266, -0.20573388534755296, -0.20214878690919322, -0.19106194381205988, -0.17704070275552483, -0.20256320813410672, -0.1968725652706058, -0.21374694466600389, -0.22715599638363165, -0.2181237966031887, -0.23665659588084698, -0.22713448495654484, -0.1953341834192269, -0.19385050058339962, -0.17826101367896588, -0.16765476398593304, -0.18041877067483142, -0.19255386600343696, -0.24179546604020488, -0.25538980418279417, -0.27028651137945714, -0.27348553021039534, -0.2878571980473719, -0.29262727627642304, -0.27541379278209366, -0.28101141107066246, -0.26687626380325674, -0.2974825294046993, -0.3039962962456017, -0.33318560610508063, -0.32303720702649763, -0.35170608214565124, -0.33314769502776814, -0.34145767883336925, -0.35863612434102815, -0.3551479542060235, -0.37624041173725586, -0.3700678267716711, -0.37446473542011666, -0.4286646516169403, -0.4532165172825818, -0.48332433598024505, -0.4697023446227846, -0.46500923745287165, -0.5117939097802908, -0.5187621496932577, -0.5099816001490709, -0.5123133905789475, -0.5330762096500364, -0.5475304286985295, -0.5806485556010491, -0.5323368755200136, -0.5471646602515743, -0.5624734799124121, -0.5699765041374172, -0.5708447078218122, -0.5388541947443022, -0.5543402659463341, -0.5342020460545508, -0.5514189863068637, -0.5803119471297838, -0.6101309485763665, -0.640519029084579, -0.6098142234680062, -0.6238106501054871, -0.6615988853526404, -0.652952458180662, -0.6699991075869638, -0.6509480088230796, -0.6521069937508246, -0.6765056963428369, -0.6426259428629211, -0.6508887354512001, -0.6422146509804839, -0.664388925224812, -0.7031187923506625, -0.7130079246983674, -0.7249966760271053, -0.7229025148602822, -0.6967897667546094, -0.7107069828494105, -0.7013771469000729, -0.6991736108673052, -0.7239901400127761, -0.7317564377832341, -0.7180854012390677, -0.7270889074003662, -0.7384616880642207, -0.7403545461806029, -0.744659728528665, -0.7288851423344507, -0.7275846558116221, -0.7228437283412213, -0.716602237043267, -0.752630482420566, -0.7901952197267352, -0.8125659502630996, -0.8003097665554025, -0.7896854011813984, -0.7923683139212591, -0.8485723270909358, -0.8489527912196266, -0.8280367281346793, -0.8425105104166201, -0.8271904905242762]",True,0.8000,0.4000,0.4000,0.1000,0.2000,0.0100,2.0000,True
27,nogo,Correct Rejection,0,2.0000,"[0.0, 0.004851211080799365, -0.013649140004868814, -0.027915507421796378, 0.004072524023119774, -0.0058906572110090805, -0.0011454750326906626, 0.002321784543900454, -0.03305495398557424, 0.006419192898933904, -0.0037008640026869807, -0.040502928015706166, -0.02380639474660024, 0.0015292904094943195, -0.007625868244841965, -0.05160723066144387, -0.018440308807637168, 0.014640836260100092, 0.022268515218020087, 0.011686400492289773, 0.057848240066223126, 0.03551313067856011, 0.05227141693976743, 0.0398741923958091, 0.045610196220018266, 0.033228016086561916, 0.0285877418352345, 0.03444413333026258, 0.028914070310048782, 0.009122758091144153, 0.004175541024026016, 0.009924790446257551, 0.0017695033994344165, 0.03176538260036364, 0.012183326565189966, 0.006978471244628368, -0.005135494158671114, -0.021736388838298384, -0.03759287992449793, -0.0428565546174792, -0.0686858031248849, -0.08305118613472073, -0.09704437198215213, -0.06138768651609948, -0.03324799137279973, -0.03235780169839015, -0.03836876034675405, -0.030409368537413307, -0.022384212542674482, -0.032997153577648645, -0.023236881803792245, -0.03724154200783246, -0.01879437263015914, -0.048873613618625515, -0.0572725230869989, -0.04934789104869485, -0.021945146000180497, -0.04494995165950841, -0.054482135524888196, -0.044757167375703344, -0.05235961082898652, -0.047282046147425705, -0.0695238566571996, -0.10996347649665358, -0.09415047924617079, -0.08752056216230122, -0.11184047426028519, -0.10986024854614186, -0.1277470617541652, -0.1317333430174725, -0.14868470088655864, -0.1599631487353608, -0.19930740047816442, -0.20871059012126245, -0.2231320562641885, -0.21322839641623642, -0.20780530966991853, -0.2219866188530036, -0.2159362943372276, -0.2667666121798197, -0.25087992720883495, -0.2791829971993156, -0.24826178445126984, -0.23682707002588468, -0.26299578724590156, -0.28231778435129534, -0.27536622594235943, -0.2551356484815845, -0.27545860213811424, -0.2781317992002705, -0.2681251287047574, -0.24425213135699386, -0.21713042087008796, -0.21532192659922803, -0.21072597392008502, -0.238561992343371, -0.19381004213920133, -0.19706454885756292, -0.190810254844581, -0.17977231033796082, -0.14470580348777312, -0.18279753857506176, -0.19526965992069317, -0.18859266149439066, -0.22410038488785505, -0.2529474162438595, -0.23691833605855286, -0.21307380098073492, -0.22402419968392, -0.24240227777820028, -0.20847251243749398, -0.19512903206496193, -0.18678179957380192, -0.1672027378790112, -0.1811830855115656, -0.16644265396558394, -0.1990846123547452, -0.22058901539278045, -0.26298830332427336, -0.26506416935611476, -0.28971851901293055, -0.27025975448113, -0.27689380756976584, -0.3220235635409068, -0.30506480745813647, -0.2927443503822515, -0.2767266252655602, -0.30213572316321613, -0.31523549293884046, -0.32000192010271544, -0.31161940118822656, -0.35018760348874056, -0.3455162392608115, -0.3338644982989709, -0.36733480881827274, -0.3535299600660301, -0.3364624351740482, -0.3241088124546782, -0.31259981507797985, -0.3346504704724993, -0.3577381199567726, -0.3847757597056301, -0.3922469044909608, -0.39009482885039515, -0.40341164672473667, -0.40300743271716305, -0.38037588540392897, -0.3815918692614051, -0.3523525700316494, -0.37212003698169555, -0.3740274388228861, -0.38810057952393845, -0.3796087561829323, -0.41587687827861386, -0.40196897694397365, -0.39749864467303275, -0.409523891460712, -0.4090139861410782, -0.39628647257223365, -0.419847997302596, -0.42887493425310463, -0.41803861464381553, -0.41260964433009106, -0.4305977661719477, -0.38172767248274125, -0.3837086207744298, -0.4101882786270957, -0.3947690748345064, -0.4000840365357095, -0.4073233935932267, -0.4134071929002526, -0.43672188815970003, -0.44226974443932127, -0.5001101103085993, -0.5052894836274252, -0.49665807333162265, -0.47134180712522, -0.4203964536688895, -0.4468811277676217, -0.46276907325125105, -0.4595027063661948, -0.4760558455793288, -0.5025892543219364, -0.5011847835541556, -0.490051203194403, -0.49612201481616763, -0.45150919459255445, -0.48813856704700664, -0.48419082923291695, -0.46248482395411644, -0.46876263361656]",True,0.8000,0.4000,0.4000,0.1000,0.2000,0.0100,2.0000,True
28,go,Hit,1,0.1500,"[0.0, 0.004433823136103554, 0.04425087083800292, 0.06228868196450015, 0.06277866195621634, 0.1120858616292818]",False,0.8000,0.4000,0.4000,0.1000,0.2000,0.0100,2.0000,True
29,go,Hit,1,0.2500,"[0.0, 0.020479607957077296, 0.018256865271137082, 0.01012711956220155, 0.04874236765290334, 0.05517270937156859, 0.031128258707590922, 0.013722071443662266, 0.009174512221243299, 0.008393204724309756, 0.020319702986128774, 0.03397719001940672, 0.05803189595665622, 0.09723481969343906, 0.08346538961074515, 0.11729132550016504]",False,0.8000,0.4000,0.4000,0.1000,0.2000,0.0100,2.0000,True
30,go,Hit,1,0.3900,"[0.0, 0.021431214145076913, 0.030647811287870433, 0.024292837356783895, 0.04405778387765545, 0.09038023643137684, 0.05662601704910136, 0.0561682894111629, 0.06877153988358982, 0.07938616858266602, 0.07343917171847321, 0.06430987949378628, 0.03758635015362976, 0.03453653488275307, -0.0009353769591095226, -0.009823871216119374, 0.016146174856968027, 0.026930310393443208, 0.00010517405726525458, 0.0233160930934974, 0.03194609188067559, 0.01673718360819577, 0.005516982171244349, -0.0028084617949982148, 0.02692583127927229, 0.07195541670890383, 0.08303647595084038, 0.08283931735374081, 0.0938393770090862, 0.10357045661132507]",False,0.8000,0.4000,0.4000,0.1000,0.2000,0.0100,2.0000,True
31,nogo,Correct Rejection,0,2.0000,"[0.0, 0.017137468946609342, 0.02538209857523239, 0.04842671134872366, 0.06382902613722946, 0.05025853385127927, 0.07935807081607466, 0.04405710998487214, 0.04936584937466364, 0.033321356586950894, 0.013647786828269049, 0.040858395252577784, 0.04059957807381452, 0.0523410835014154, 0.004692239724476487, -0.007872420001446214, -0.011515235726009583, -0.04299550454486582, -0.05172076580221356, -0.08446994878839403, -0.09055434893904248, -0.06811453594328866, -0.07650145893072152, -0.10532574955142043, -0.11819920909597294, -0.10157591112891859, -0.12448130667672277, -0.14301932178006735, -0.17509882660626636, -0.19651918592544226, -0.19527291042005637, -0.16061421027002615, -0.17670577092731482, -0.21293240311779477, -0.2067408546400912, -0.23135283070482493, -0.2133805239521072, -0.24172197037303805, -0.25834848185632725, -0.26827904416865256, -0.2545726502160262, -0.24232087965700808, -0.256482630632182, -0.24332561495887245, -0.23927087431288185, -0.21933549185413412, -0.2540508614229895, -0.2699969762203886, -0.2722830198582753, -0.2612007546252945, -0.2754230465899494, -0.30131197864377435, -0.31665600460799653, -0.3130073766455559, -0.32150690095747864, -0.31664234590226625, -0.2994137641371952, -0.27899241432880456, -0.28665331216421214, -0.3256049118847996, -0.3554416277842319, -0.3531075471123695, -0.3213346811569933, -0.330906605257823, -0.32437756213664476, -0.3204759118630443, -0.3305078156283193, -0.3137045248912435, -0.2844888855095318, -0.3228305576540227, -0.3197303977781602, -0.3422525677996182, -0.35763277519169345, -0.3683918635220601, -0.3798037294614528, -0.381893313787799, -0.3738973506999512, -0.39020005265212143, -0.4061823059576174, -0.3913100842671067, -0.38849698579400344, -0.39775031710757314, -0.38752817699059294, -0.40443630689731513, -0.4041164135032882, -0.43205183220246074, -0.41702060985683437, -0.4369087830306837, -0.408254751310962, -0.39612646098452453, -0.4514384137658479, -0.4488397131636073, -0.4648961248212122, -0.45287480753456333, -0.46503060497459536, -0.4903730192149055, -0.5137963386353026, -0.504098141043624, -0.5253324008186303, -0.5127884170921997, -0.5474192007952102, -0.5665148251271365, -0.6105552743591512, -0.6290834870396809, -0.6307144503371986, -0.6117488842375627, -0.6316436645693118, -0.6474833523143376, -0.6372586885158618, -0.5932601833514635, -0.5769826169397821, -0.5808051864285884, -0.6160623318042646, -0.5897944085474119, -0.5845385381700254, -0.5898663347194576, -0.6179001246523906, -0.6856562223964062, -0.6923627690662044, -0.7131378783479886, -0.7199058550522328, -0.723066793863748, -0.7120272479015003, -0.7114353314100393, -0.7048953513658532, -0.7556514112048388, -0.7800982736635204, -0.7907926896713975, -0.7768575820894642, -0.785043636938206, -0.7813815833293826, -0.7906056342534955, -0.8030279484881102, -0.7871452130842254, -0.7839750918235601, -0.7689737967053931, -0.7509185197846373, -0.7658271639259678, -0.7742337150652588, -0.7861049804003564, -0.7720255409271267, -0.7388230131917228, -0.7477979719881, -0.7765905521220361, -0.7794046002029631, -0.8110058626169598, -0.8163246977327562, -0.8238717071517996, -0.8478271610793401, -0.8620796123003163, -0.8769996591565827, -0.8813789078586028, -0.8794025339343975, -0.8641936032950114, -0.8728169814223298, -0.8637940084423876, -0.8623383012337859, -0.8949172151621307, -0.895865921433385, -0.9117816789750107, -0.8959243953304316, -0.9044328831272799, -0.8771037503606214, -0.849642734376607, -0.8559721252405016, -0.8474785529521761, -0.8464347144560799, -0.8651606790782209, -0.8688693188311365, -0.8462062583582788, -0.8302941286454243, -0.8307686248959406, -0.8320878275618011, -0.8686194045164379, -0.8625453603594616, -0.8583644315589496, -0.8442593949524978, -0.8302498495453832, -0.8160524854025691, -0.8285419694818139, -0.8373314485918041, -0.8484735284898506, -0.8972313134290832, -0.9090328562990888, -0.9334037896896005, -0.9250700361999057, -0.9209724120309337, -0.8974001524153307, -0.8923426825313825, -0.906316403383952, -0.9450637226902088]",True,0.8000,0.4000,0.4000,0.1000,0.2000,0.0100,2.0000,True
32,nogo,Correct Rejection,0,2.0000,"[0.0, -0.007952787071605228, 0.013816091052501731, 0.018715260765392386, 0.021783835746141796, 0.040041392355035996, 0.05303452689245042, 0.01744927951360945, 0.017433346500161748, 0.036429124014783, 0.04867234196990962, 0.05523204662922909, 0.03772501685368451, 0.05058219919978223, 0.071038229626108, 0.07992462662248874, 0.05994555189895984, 0.05025081618518376, 0.02121365894345988, 0.06421996719662038, 0.031379228942217514, 0.019343272138483667, 0.028157277560446038, -0.0006823347163872617, 0.015558955809597673, -0.008044067391588042, 0.012272465210738135, -0.008063346454367817, -0.005763448540694688, -0.014364396042665232, -0.02988691212087445, -0.034446303978877484, -0.03758142047207207, -0.049425088910129575, -0.028687603274879625, -0.01295013356825283, -0.028853462765288333, -0.02142370142018942, -0.011086936033030336, -0.015579485105684073, -0.013612592902094277, -0.002000186046304713, -0.024935871867259624, 0.006597289855337224, 0.030193739222221138, 0.04978229104525378, 0.030761627004055082, 0.0413029918370021, 0.035585275441036575, 0.012330878873861348, 0.03530545753332763, 0.06853587107642334, 0.06535940134022683, 0.06433985671070228, 0.05998549994195601, 0.021798147548346247, -0.0019657282617930906, -0.006966231628818799, 0.030297286562298, 0.017190079682357785, 0.015373019670869636, -0.0331268103422168, -0.05064231674630698, -0.035394874247635155, -0.032744076064404576, -0.043941751242619294, -0.027930139160539477, -0.05379373074293159, -0.0483013968626579, -0.05222060462622407, -0.10077898112539528, -0.13473866806306528, -0.14467022380833316, -0.11541143932345585, -0.11545584552695205, -0.11538424885973257, -0.09032895845661268, -0.07818740252972216, -0.07331829013783203, -0.07270510062626268, -0.036319800391990904, -0.039262324044508946, -0.06607404829704584, -0.045110775612002066, -0.043828303098277406, -0.04512293688804997, -0.07054309997070024, -0.06238298914633309, -0.0695407796486823, -0.06737048078306825, -0.05638314380638452, -0.087066138105264, -0.10559829965206144, -0.09703435700869761, -0.09215078997850037, -0.11159685753908122, -0.11876348757549829, -0.11017673491709518, -0.1390102398178225, -0.15020778973340307, -0.16620013365321648, -0.16395379305759278, -0.16511543355608257, -0.1531495067045322, -0.16796762140346305, -0.17349166816827163, -0.21692704668276028, -0.24174451348050385, -0.25515784669917546, -0.24728908266172228, -0.28699059529107285, -0.27780515874516687, -0.30130056770836766, -0.3452508303817487, -0.3659765105105557, -0.3929475272043347, -0.4114834376805853, -0.382425326223406, -0.399918725095179, -0.4329204811718959, -0.4412492779279251, -0.4223502526416687, -0.4267769107739029, -0.46354097925310106, -0.46228169766892224, -0.4393957070379294, -0.44984519278437685, -0.4684384704354925, -0.47497931300968094, -0.44349326319749394, -0.43696596448394326, -0.4181483494612338, -0.415355901043646, -0.41714252590054646, -0.41289978335044514, -0.4358999259023241, -0.4663436462261143, -0.47149437762603363, -0.4718090799725276, -0.47698126161764554, -0.5041548405483645, -0.5043900416366209, -0.5614449246287873, -0.6009776919185267, -0.5724153654884556, -0.5877410731921133, -0.6008168526403215, -0.6233691539243639, -0.6332697285729177, -0.6687111369746847, -0.6405939700567713, -0.6613820543718582, -0.6739005463996939, -0.6763839444989537, -0.667885137542447, -0.662902465882148, -0.643311182584574, -0.6563499977968719, -0.6514076914554305, -0.6715459759278888, -0.6456079472535058, -0.6156473051458451, -0.6218411002291182, -0.6457197303570685, -0.6462759347203793, -0.6585725229077903, -0.6299662240067985, -0.5914149634076804, -0.6073408034095863, -0.6106888583816704, -0.6138793683352308, -0.6355748290879972, -0.6520131773140823, -0.6724879328411094, -0.6952747558736386, -0.6901639229111177, -0.712637350893947, -0.7506782024305284, -0.7736843354190581, -0.7945463985135537, -0.8043373211184912, -0.7886594936081418, -0.7898072768763843, -0.7688516421155844, -0.7296436746558944, -0.7287837942732864, -0.7864543509880262, -0.7804494496256665, -0.7855848759224171, -0.7852611287187912, -0.7908230660958347]",True,0.8000,0.4000,0.4000,0.1000,0.2000,0.0100,2.0000,True
33,go,Hit,1,0.2200,"[0.0, 0.015109921624711517, 0.03561998673329752, 0.025243888372037254, 0.04036519629800398, 0.03315597119879666, 0.01519993515847734, 0.02055953908496589, 0.06394173681153101, 0.09246367916686489, 0.08903309594227467, 0.09377043759110673, 0.12169754588233947]",False,0.8000,0.4000,0.4000,0.1000,0.2000,0.0100,2.0000,True
34,go,Hit,1,0.3600,"[0.0, -0.006947415339151334, -0.017928978677660013, 0.0014229914300489012, 0.01751995311382731, 0.0022146109692623046, -0.015741012558578855, -0.01006887054568543, -0.012230541563091814, -0.008528770067139682, -0.00841135692585629, -0.0008990300262841332, -0.013743840950038187, -0.009452656286508392, -0.05469539246876149, -0.021656077701291437, -0.027469571641392403, 0.021489459041248347, 0.01580648827079406, 0.03990476135343973, 0.028150273289547948, 0.022977219728393, 0.028510628785642433, 0.04774215374230553, 0.03727698617221086, 0.06252392544580763, 0.10281765823159751]",False,0.8000,0.4000,0.4000,0.1000,0.2000,0.0100,2.0000,True
35,go,Hit,1,0.2100,"[0.0, -0.016541243123347947, 0.018058365602507925, 0.005102134685687702, 0.015610929432416341, 0.0546361268431294, 0.02944528755436914, 0.03494116508710587, 0.04237363508296618, 0.06477771029116423, 0.07066982660650085, 0.11592037696521776]",False,0.8000,0.4000,0.4000,0.1000,0.2000,0.0100,2.0000,True
36,go,Hit,1,0.1800,"[0.0, 0.008914972745094518, 0.009493702047188182, 0.03035578421046322, 0.03686035087261373, 0.03238269917629055, 0.04272212386743549, 0.07832774640449451, 0.10211875834254067]",False,0.8000,0.4000,0.4000,0.1000,0.2000,0.0100,2.0000,True
37,go,Hit,1,0.2400,"[0.0, 0.01603803259691977, 0.059776395246511224, 0.06472176282487427, 0.07190250855455586, 0.06818565948118763, 0.06908843426650932, 0.0704122464654621, 0.059254879892388784, 0.05684618662285691, 0.07274781256126234, 0.0766148980646986, 0.07083074271430446, 0.09930807788321146, 0.13060010401731567]",False,0.8000,0.4000,0.4000,0.1000,0.2000,0.0100,2.0000,True
38,go,Hit,1,0.1700,"[0.0, 0.04146518546291528, 0.051471435692701295, 0.0663441314554015, 0.07031654125447602, 0.07127820951807022, 0.09457885119963513, 0.10145769472189967]",False,0.8000,0.4000,0.4000,0.1000,0.2000,0.0100,2.0000,True
39,go,Hit,1,0.1600,"[0.0, 0.015994874124294282, 0.0658466923569127, 0.07019784685439345, 0.06893808567833595, 0.09923453023778417, 0.10656236759589452]",False,0.8000,0.4000,0.4000,0.1000,0.2000,0.0100,2.0000,True
40,go,Hit,1,0.2700,"[0.0, 0.0065286345645843855, 0.006310482304430176, 0.010950622017284833, 0.01686250153504005, 0.06220215109362664, 0.055771241347685116, 0.05142585551359014, 0.044772900171276823, 0.0249799071055913, 0.006206362231104753, 0.01724547202899343, -0.028879340713739363, -0.04175062074572089, -0.0033505975169245833, 0.031403443050229025, 0.08845138567438178, 0.10419786995536959]",False,0.8000,0.4000,0.4000,0.1000,0.2000,0.0100,2.0000,True
41,nogo,False Alarm,1,0.8700,"[0.0, -0.035952797579874254, -0.03958239644465766, -0.04351893996956373, -0.058242005546536545, -0.024806862584722, -0.026099517446701387, -0.014102435652750388, 0.014445916213045511, 0.02639615086550164, 0.023866746760773664, -0.000992652523589519, -0.007344235869978117, -0.03379450245584598, -0.03272072082562731, -0.051102827516106036, -0.018113937075643266, -0.005318973887295643, 0.01103757162174076, 0.016383816016719448, 0.03230166984074369, 0.05209820144092579, 0.045228245069455, 0.05693578209328248, 0.0557685255352283, 0.09618978711913509, 0.08015259839474405, 0.03734108001861725, 0.024500647849379623, 0.0020443612248371157, -0.01953318818545845, -0.0025408929928466203, -0.00637464723516544, 0.007708038043520585, 0.01417516203216171, 0.0181436767615807, 0.0010335663481906704, -0.016742595344365962, -0.02763940516120276, -0.029300178217215717, -0.01708458612366066, -0.0016463914405454635, -0.003573128810618007, 0.003880493641680088, -0.029917107390537975, -0.04083090683015253, -0.04772977348988853, -0.049848922261449616, -0.04893484883706301, -0.023151087353524672, -0.018915170369515958, -0.013920365057467557, -0.013192593631252577, -0.043489041740804986, -0.037790218929891026, -0.01653569445119471, -0.03114610619323557, 0.027130298994039053, 0.053797907494604544, 0.012205790235937812, 0.048480968243244944, 0.06153034366635245, 0.055316856353293524, 0.07569813560192934, 0.07862451212788192, 0.07044860340357127, 0.07845977620460473, 0.061982266209669415, 0.07623426392331097, 0.06006051393530656, 0.07599292150954563, 0.06939207080970801, 0.08591196312524502, 0.09442884700540513, 0.08132578022063161, 0.08468926606823646, 0.07256016003530259, 0.11583781119368464]",False,0.8000,0.4000,0.4000,0.1000,0.2000,0.0100,2.0000,True
42,nogo,Correct Rejection,0,2.0000,"[0.0, 0.01171315270791248, 0.002403024820372284, -0.011414962183663642, -0.026855319393552863, -0.038309922338657196, -0.02802768699657239, -0.024173921881112375, -0.0347011440227258, -0.03643712096801175, -0.0693567592554842, -0.07706259521915057, -0.05032620997934496, -0.03664101771382099, -0.03013955325878078, -0.029896069229751656, -0.07330419725019016, -0.0931950116796346, -0.10851816093893556, -0.1294049418242919, -0.11587524291040757, -0.12104344265189831, -0.1208873322892283, -0.1130598611209319, -0.10828675104752113, -0.12366474997490941, -0.16433608056149224, -0.18724509238884116, -0.2181196410893714, -0.21734070407067094, -0.21620423037420847, -0.19976162580419832, -0.1906642298872354, -0.18916519982743116, -0.19347861777798764, -0.17885356603654082, -0.13904273904861814, -0.13881757118037497, -0.13739464472182977, -0.12351362206576826, -0.13817378500575073, -0.1300437224838066, -0.12681265874671493, -0.09847680860436664, -0.14678629126989468, -0.1400245099851563, -0.13303657029241625, -0.1460045828395719, -0.12598146771334526, -0.15695454981021614, -0.16427395995722985, -0.16113879955130678, -0.1768700901746877, -0.15223399038291663, -0.13557742728583008, -0.1258334986982666, -0.10339497375911019, -0.10423811458514776, -0.12204296420864064, -0.10136807494678095, -0.08631885583031151, -0.0629129520254524, -0.10285494352402684, -0.12138646672299015, -0.16005069122473287, -0.1409984517239468, -0.14337033196877058, -0.1289540147944688, -0.11983159499211096, -0.1553812290655967, -0.21889973579368746, -0.17539041103645261, -0.1725577597274498, -0.18902984473237863, -0.20379074024626456, -0.1972638727626371, -0.162239235968349, -0.19980654034292616, -0.1908452145485271, -0.20849523673213996, -0.21022781209367633, -0.1978694227099886, -0.2156323363880137, -0.2460178215478063, -0.24997864115512017, -0.214557513203728, -0.1974428169132819, -0.176246385588174, -0.18666426246157258, -0.17331601272021435, -0.18764568872700768, -0.15577277043989868, -0.14039251451574233, -0.11531393128809667, -0.1375989558627271, -0.14065407695727236, -0.13977554317450155, -0.15285731524623897, -0.15385123110104146, -0.14780236004503686, -0.1582267075661423, -0.17678058593265508, -0.18237572441130753, -0.19867688333329916, -0.21157153176458543, -0.19003565815491488, -0.19655835411778874, -0.18345438501387823, -0.174120501599329, -0.1474878177764732, -0.15774575310966524, -0.19226015767780635, -0.18225556988561303, -0.22417269920621813, -0.18252604865553237, -0.21044301594286446, -0.22413658808885273, -0.2328622764323905, -0.23351328237318136, -0.20711677407210244, -0.20272364588884473, -0.2372080585460929, -0.25066866132416593, -0.23401382538897322, -0.2601860351324399, -0.2651974281909307, -0.27206177389343267, -0.27358705877136835, -0.28247038468867625, -0.2940886903079167, -0.3024471280015073, -0.28214142163664796, -0.3066640321639354, -0.314454182462569, -0.3084282766699042, -0.3124967732222254, -0.29745570335649846, -0.2902789463930246, -0.31762842397065943, -0.3247861014803904, -0.3264657854464403, -0.3444480589775331, -0.36081605317511445, -0.3516928450285289, -0.36722839289809, -0.38174260776132857, -0.36253494172473416, -0.3759980003242889, -0.3899217425606297, -0.3798897919737859, -0.37782377393202776, -0.4242364546805678, -0.427371446061323, -0.43618032636480164, -0.45885289573139737, -0.4741792318077484, -0.4555810546854788, -0.45314520588423873, -0.4131964408756282, -0.4248239491343435, -0.43964449703938624, -0.43382268886932146, -0.39167879314187243, -0.38126892189927225, -0.4242879660604021, -0.39461778202145387, -0.4085944821417968, -0.4297136239126111, -0.4133730210613309, -0.4109654711856217, -0.39757751231757443, -0.40749671441967594, -0.38366393508561786, -0.40922212604937713, -0.3731761234047189, -0.40890435289127147, -0.41378848028376497, -0.36674080417664157, -0.3805397640514629, -0.3635573309364349, -0.34574961189229725, -0.3166718428715636, -0.32352686956761983, -0.33276473819495045, -0.3392795993372061, -0.3472932986108007, -0.34352116819838474, -0.35164862781151157, -0.37539493202284197, -0.36094723970915626, -0.3585488735819036]",True,0.8000,0.4000,0.4000,0.1000,0.2000,0.0100,2.0000,True
43,go,Hit,1,0.1800,"[0.0, 0.005592589887471163, 0.04956223390556826, 0.07758341097304093, 0.08937887726609943, 0.07940792786172995, 0.061337342283114105, 0.09580671311964903, 0.11084837264044367]",False,0.8000,0.4000,0.4000,0.1000,0.2000,0.0100,2.0000,True
44,go,Hit,1,0.1900,"[0.0, 0.02054213749954359, 0.002928489237233909, -0.006950766885910696, 0.02854292947847984, 0.04116270741006286, 0.05752026960994968, 0.06543466288683644, 0.08509908486389439, 0.1102982402357219]",False,0.8000,0.4000,0.4000,0.1000,0.2000,0.0100,2.0000,True
45,nogo,Correct Rejection,0,2.0000,"[0.0, 0.014490986554604469, 0.04762339583520917, 0.04460645880028278, 0.06038221085126519, 0.06504189533216785, 0.07541386491458071, 0.0642295734664571, 0.04927187906281616, 0.02431709140014215, 0.008329601816812467, -0.026620485183575664, -0.01664831098998821, -0.028726906282311948, -0.052004724400517156, -0.05775073245272539, -0.05632141656873174, -0.07123640322483839, -0.044081231566123966, -0.05496658434439432, -0.05733125544195902, -0.06660989385412282, -0.07247388332761533, -0.08066747433143477, -0.11897796108352031, -0.12156162918860096, -0.14531143768776558, -0.14630889514702336, -0.1494691756331253, -0.14785564828292203, -0.12028504893582646, -0.10511793398915295, -0.13310139030308488, -0.1330027330381447, -0.14257150169238184, -0.16097172065671564, -0.13562023794843897, -0.13984847300868347, -0.16153815031960328, -0.15434171280884929, -0.12924987450093103, -0.13332071856735342, -0.15173332009500434, -0.15723479849029576, -0.17711984201961928, -0.153761432884848, -0.17025215254495898, -0.18363398773999967, -0.2256819290501352, -0.22253891676989365, -0.21310677331246727, -0.2040407919040021, -0.21486710817249094, -0.21914461471698968, -0.2403289553153829, -0.21933317677831937, -0.21170995667645412, -0.19066161606332602, -0.19515938741437633, -0.158387022967707, -0.17622076293523592, -0.22431928654999544, -0.2086609912654269, -0.21053396461253324, -0.22969221914220583, -0.20367217072584198, -0.21731670560928817, -0.23211635394263896, -0.20110522581992057, -0.16524089828325275, -0.16735582954259545, -0.14537501389379906, -0.17105559859045508, -0.19332830067924844, -0.19292173544549526, -0.167347119033405, -0.2037191276328233, -0.177344834698477, -0.19330988653863115, -0.21966147656413657, -0.20849437623635556, -0.2026661198903426, -0.20046375669568012, -0.21866204292239538, -0.24845572815437322, -0.25099554477066627, -0.2415014591120051, -0.23729801916384957, -0.27131826940675513, -0.28916801828419864, -0.29692909221713526, -0.27833152806642375, -0.2394376160466384, -0.2551136628851143, -0.26824398659586335, -0.28069558118704324, -0.2523363210467182, -0.23410574557092112, -0.2776094273544534, -0.29286750377875714, -0.2746569503996052, -0.2865572746563408, -0.29813765596121344, -0.3154845255265927, -0.3286299690307551, -0.3141825375539071, -0.3245108784458894, -0.3705732347272892, -0.4134713514551568, -0.4141043525036292, -0.37231944420760493, -0.35049157623380806, -0.36193987298732955, -0.36907107271144396, -0.3764716227264627, -0.4051258003355173, -0.38778407786093344, -0.39199248594576686, -0.39638749937689716, -0.3957413042684197, -0.4053578221762618, -0.4242178234280866, -0.4364175398446735, -0.43080976931022097, -0.4684718044851578, -0.48448006970368807, -0.511295935010106, -0.5468085655704306, -0.5473624745261645, -0.5033637200016645, -0.5101334371210829, -0.5238065963480301, -0.5406535630998164, -0.5633442518704519, -0.5507007098639725, -0.5358796354792038, -0.5465114154302698, -0.5139144256820336, -0.5345219290194178, -0.5367223770466126, -0.5285752341370537, -0.5371918389315259, -0.5549733677662368, -0.5558488392160594, -0.5475383893950082, -0.5515153065838889, -0.5600492173192743, -0.5725641536841863, -0.5907019506090216, -0.6147437293421787, -0.5999787169556784, -0.5756544053487765, -0.5965953324668402, -0.5529996984560264, -0.5479299912642668, -0.5497273510998879, -0.5870630945794945, -0.5952026327560566, -0.6195531065435798, -0.607607369829844, -0.6185623332869613, -0.6514601877311982, -0.6543363774484328, -0.6436962366781033, -0.6489241540583454, -0.6664377316964639, -0.6678990992569104, -0.6930902878040951, -0.7181005454045737, -0.7596472198326637, -0.7982294766942111, -0.8211967517622027, -0.8338575018265936, -0.829617687930095, -0.8324961327825138, -0.8511593673900234, -0.8332101124291749, -0.798258045232251, -0.8136962774863324, -0.8053429060656447, -0.7743085221044037, -0.7824005217031388, -0.7725025620879684, -0.7552077735959628, -0.8000926780502797, -0.8019324774304338, -0.8085746948155068, -0.8087734245262427, -0.8089938243907527, -0.797179517551519, -0.8073549230636196]",True,0.8000,0.4000,0.4000,0.1000,0.2000,0.0100,2.0000,True
46,go,Hit,1,0.1500,"[0.0, 0.003930811196015269, 0.031236197004133017, 0.05562671969950972, 0.07557245906510451, 0.11397940503346275]",False,0.8000,0.4000,0.4000,0.1000,0.2000,0.0100,2.0000,True
47,go,Hit,1,0.1700,"[0.0, -0.0065240467211026745, 0.004763036187256058, 0.017678066363293242, 0.02118693892757881, 0.07464483125939449, 0.09762959506435506, 0.138458045152847]",False,0.8000,0.4000,0.4000,0.1000,0.2000,0.0100,2.0000,True
48,nogo,Correct Rejection,0,2.0000,"[0.0, -0.031224949155755938, -0.05117129581228089, -0.08410623683697528, -0.07124826226042771, -0.0728021284049815, -0.08659328180514489, -0.048419891768961346, -0.07999498257937399, -0.11573865554527232, -0.09264982375545447, -0.10144583946020885, -0.09359392692107237, -0.12301986237645876, -0.14681006930433044, -0.1352660306965094, -0.19022420767947815, -0.19055086463449883, -0.17245704983690988, -0.15371873361996155, -0.18685095264595455, -0.23526495201261793, -0.2202558433179009, -0.21455154232244594, -0.18874637395525143, -0.18455358726274287, -0.19777371107047226, -0.17671985877715876, -0.17572374991118409, -0.1843658092543497, -0.1760929886702164, -0.19096100137366306, -0.19923296608885996, -0.18376505713790467, -0.21087636374615812, -0.20509341930001473, -0.22872703060930402, -0.25073628575424795, -0.2435700564485711, -0.25748981305250357, -0.22930925310014078, -0.22605263251841684, -0.20543311737359254, -0.2521931535481566, -0.27662846295549726, -0.3078195807653428, -0.29377408696642043, -0.27654836372677727, -0.2596398354925466, -0.25568132349663747, -0.28514839567396005, -0.35602268980352497, -0.3788831593036281, -0.37317134518805395, -0.37622661610389796, -0.3929774924767958, -0.38289905711033867, -0.36995037083485427, -0.37831049640005704, -0.3833804539389008, -0.4038462647499259, -0.40771827702997043, -0.4150482495181717, -0.38961558788364503, -0.42275048434094414, -0.4132261752233997, -0.4426582092097302, -0.45873958374919743, -0.4948688236346199, -0.4913868110257149, -0.49920947499821317, -0.5095575862697896, -0.48774144532941677, -0.5193265301102787, -0.5349387629060594, -0.5154312259179772, -0.544585152631815, -0.5648727776602878, -0.5457872311306625, -0.5450315181762752, -0.5221842503280273, -0.5028502723581035, -0.5268620476721272, -0.5790356347553138, -0.6082405278630549, -0.6311443964388999, -0.6061248895119845, -0.6078961234755932, -0.6041926866716522, -0.6279755466445365, -0.617252027337829, -0.6102441167476365, -0.5941209630132746, -0.5905923962663522, -0.5988730222187847, -0.6079581464027537, -0.6175604844225396, -0.6021633548608134, -0.580383485941544, -0.5917387791976703, -0.589028865041763, -0.62246801064073, -0.6188448460965981, -0.6435295589768751, -0.6284355073252846, -0.6329203372104122, -0.5997099910487291, -0.633226321048173, -0.6258476095928233, -0.6193526544493647, -0.6369387158241103, -0.6503750310303321, -0.6419965195363653, -0.6286947773090197, -0.6491468591337827, -0.6186787822443894, -0.6050439404523505, -0.5837845032132251, -0.5888278838749108, -0.5895913355903409, -0.5779282245088091, -0.5945501436811951, -0.6304820467878853, -0.63769923829717, -0.6371081996338405, -0.6644126788054769, -0.679106453703826, -0.6578213107852853, -0.6394763627913849, -0.6309573830944837, -0.6194678760435973, -0.6120262843269948, -0.6708226106374833, -0.6776121847010894, -0.6757593645638629, -0.6550765991934219, -0.6660498236447683, -0.6696072208224653, -0.6784481136511715, -0.710690923388311, -0.7212828601582717, -0.7304136485302979, -0.7217988099585095, -0.7590508145497883, -0.747326889612463, -0.7426700626719175, -0.7586507622398899, -0.7668137479344914, -0.7804246401508054, -0.8163719088766355, -0.8594437285765049, -0.8497457810545005, -0.8903554328483355, -0.8818507142112023, -0.8847202497387885, -0.888353984990465, -0.8935078172555933, -0.9298777462165255, -0.9331889766222526, -0.9370068952078614, -0.9119584076298783, -0.934217784183847, -0.9484315649735219, -0.9921081682109008, -1.0075154724367668, -1.0175271358167362, -1.0223903781936403, -1.0311122834799642, -1.0233092327772324, -1.044465214621939, -1.037286433974159, -1.0523278263535627, -1.0609950187276083, -1.05353861806518, -1.032559917892697, -1.0292302585064652, -1.0079387915602585, -0.9830565727271822, -0.996223840495121, -1.0208615769127356, -1.0492803262443728, -1.0734580526424418, -1.0845069078019958, -1.083634754457199, -1.102772667372095, -1.1289563975867094, -1.0835131037970838, -1.1447415130240706, -1.1440866872829494, -1.1297739868575736, -1.1588238300408824]",True,0.8000,0.4000,0.4000,0.1000,0.2000,0.0100,2.0000,True
49,go,Hit,1,0.2600,"[0.0, 0.030640712246795064, 0.039065003643421456, 0.061165444061792175, 0.0477235390892045, 0.07913004735573646, 0.06224390620962988, 0.0458296544095911, 0.03502822359780326, 0.05362125925841158, 0.04916164893916969, 0.07492055586642452, 0.055640257420694075, 0.04966400905397188, 0.053197337174204024, 0.08042416551361506, 0.10461985521192702]",False,0.8000,0.4000,0.4000,0.1000,0.2000,0.0100,2.0000,True
50,go,Hit,1,0.3600,"[0.0, 0.01922991366755576, 0.008326811538637999, 0.032955096768596835, 0.041200484435848415, 0.038262522429763454, 0.032086236892519125, -0.009809949745784578, 0.00972914585833285, -0.021288820098718256, -0.030072019983743273, -0.037178107831426915, -0.02113043340360556, -0.0616055709831735, -0.04278979500719498, -0.011648022745728948, -0.012497760701232445, -0.016364245376814655, -0.02498967538431671, 0.015441308768897575, 0.03986542106716798, 0.048403784201403885, 0.061532386805558247, 0.07887596120057107, 0.09321247834211267, 0.0940525827430541, 0.13021119253054406]",False,0.8000,0.4000,0.4000,0.1000,0.2000,0.0100,2.0000,True
51,go,Hit,1,0.1700,"[0.0, -0.007380155097661342, -0.011020461502247425, 0.012518185831752718, -0.013182821572024104, 0.03851187746403697, 0.09935962142559474, 0.12262733949739099]",False,0.8000,0.4000,0.4000,0.1000,0.2000,0.0100,2.0000,True
52,go,Hit,1,0.2200,"[0.0, -0.007928234350972785, 0.005344951637132434, -0.006343330804097269, -0.059474178539622564, -0.04684957317375675, -0.01905937547653067, 0.018130044640483716, 0.03035523546863514, 0.05205825116277246, 0.0698700225705654, 0.08766922897975746, 0.10768733480422826]",False,0.8000,0.4000,0.4000,0.1000,0.2000,0.0100,2.0000,True
53,nogo,Correct Rejection,0,2.0000,"[0.0, 0.03078599531030444, 0.017717977008535658, 0.029734862136672036, 0.018339835370222154, 0.004499234344824743, -0.06403480124748717, -0.08841872131695414, -0.12670358286854672, -0.10018572369236922, -0.10762913922475825, -0.09911696363142003, -0.10014506705399198, -0.08395911922771257, -0.10931175516160208, -0.11846572550889936, -0.12221147040905382, -0.14173982230010712, -0.15108891753177423, -0.13050340861418075, -0.11215882687572586, -0.11962327945191428, -0.11621500778692986, -0.11463356612380213, -0.14165719687128933, -0.11873997033244157, -0.1508746199900456, -0.13669582566821614, -0.14609659154117757, -0.13973661348305536, -0.14595749517754422, -0.148513522179675, -0.11080743024053269, -0.1313339148577293, -0.13367490841034996, -0.1189316171741558, -0.15067299918673868, -0.1908664071292467, -0.19832998118978581, -0.2216397329788893, -0.20956142175413808, -0.2359771533682311, -0.23101953446049392, -0.23698077835319487, -0.22605631502760481, -0.2692313526803258, -0.2564559642864963, -0.2678674292698953, -0.28760057574630005, -0.29800433542880944, -0.26622926162415367, -0.24492456709613883, -0.23025500539107233, -0.24032515733496296, -0.2596219997053594, -0.28873389310726966, -0.2867515970104117, -0.28463238773963356, -0.2833283574729952, -0.2873605408137768, -0.30150421845323533, -0.3003348808104239, -0.2961648885114954, -0.31792948139139077, -0.31796322361703666, -0.32507447305078635, -0.31717429445871326, -0.3172552410811004, -0.3442623763077372, -0.37834556577727374, -0.3636555959782088, -0.334491276746355, -0.31384764874916227, -0.339680245024671, -0.3587385847268177, -0.3803669210813178, -0.38944090709693896, -0.3662160140768874, -0.3640633336039228, -0.35689866844418383, -0.39385382037462063, -0.4084202291325726, -0.4191632652438346, -0.40347823976672414, -0.39732009640351235, -0.42176697560831566, -0.444203115247219, -0.46831739138675044, -0.4617391981378494, -0.4476563792422087, -0.43623640217830945, -0.4522273827461446, -0.4795448538146605, -0.48971525519377684, -0.5038842735727304, -0.511953476837097, -0.4985924513994002, -0.5073895981479748, -0.4927934246363364, -0.5047148509188281, -0.5312083035069208, -0.5411619189921275, -0.5315755926068227, -0.5189589200935469, -0.5254463909977468, -0.5020040095095863, -0.49255871919250127, -0.49194683704862197, -0.5020211569635801, -0.5048780782174567, -0.522916558355668, -0.5207328970187338, -0.492681715165642, -0.5056524125601651, -0.524647575672625, -0.5315874683103806, -0.537850909640517, -0.6065833760670768, -0.5928449307573516, -0.6040189597887173, -0.6002253975092577, -0.627868540672102, -0.640721504679083, -0.663109739247719, -0.6456051675545569, -0.6493077648613603, -0.6686257179653552, -0.6593194004356958, -0.6519816207513449, -0.6296393707969766, -0.6422425644870237, -0.6632974798294456, -0.6811350962861005, -0.6890599631725468, -0.6359939785099483, -0.6093299338021142, -0.5988522085286152, -0.5861062265335413, -0.6084303206090635, -0.591984254067076, -0.5689597908160249, -0.5687793811875862, -0.5680656382229373, -0.5750280226252019, -0.5711202693988604, -0.5557170811272081, -0.5555031203864297, -0.5303045684251964, -0.5034764642984847, -0.4904430604822136, -0.49011494157603075, -0.46946978572411246, -0.4418731389469172, -0.4281332878074645, -0.41065752905246944, -0.3944731618572175, -0.4129757766686185, -0.42104262464131464, -0.398422680681265, -0.4037915225089123, -0.3992615168137955, -0.3971081610010501, -0.40436925751918806, -0.4083700699304326, -0.4329791569243161, -0.443672261430085, -0.4333227588910914, -0.4556124747039805, -0.4395016653709768, -0.41740186722338374, -0.44388909627199014, -0.4569826050926719, -0.44035739590273043, -0.4315081334738388, -0.4405744873375471, -0.45475958394775584, -0.4509778305305471, -0.4469770690390832, -0.4576204623339181, -0.44648571290554806, -0.4153448096061429, -0.41659717933821316, -0.43019925160140915, -0.4318740309197742, -0.41323552308958683, -0.43625733338938066, -0.42319395831363893, -0.45749320530018056, -0.463283108961161, -0.4497564177990068, -0.4443790077118189]",True,0.8000,0.4000,0.4000,0.1000,0.2000,0.0100,2.0000,True
54,go,Hit,1,0.1800,"[0.0, 0.05128184436793993, 0.05331749109367563, 0.06226673786099546, 0.0780369091148205, 0.08398635618294169, 0.06678497207607337, 0.08510172693535104, 0.10579928068729955]",False,0.8000,0.4000,0.4000,0.1000,0.2000,0.0100,2.0000,True
55,go,Hit,1,0.1900,"[0.0, -0.01165557391029198, 0.01671007045749823, 0.010710614936159808, 0.04419938059103902, 0.04536368094876559, 0.04327052822650322, 0.03197156875777572, 0.05311816725119183, 0.1131653360739684]",False,0.8000,0.4000,0.4000,0.1000,0.2000,0.0100,2.0000,True
56,go,Hit,1,0.1400,"[0.0, 0.012386911300607293, 0.02895678306019192, 0.09668551219074006, 0.10477228195779366]",False,0.8000,0.4000,0.4000,0.1000,0.2000,0.0100,2.0000,True
57,nogo,Correct Rejection,0,2.0000,"[0.0, 0.004873735043339093, -0.01609033975007774, -0.04199578275436121, -0.04398960189198555, -0.08253346349543106, -0.09371560788394037, -0.09185448804898774, -0.14051989810898147, -0.10702710079224051, -0.11621754633477517, -0.14489032195699278, -0.10892683719794932, -0.13956384289243273, -0.1669006367883352, -0.17941280861734615, -0.1608509921185406, -0.1670407256352385, -0.17180669586343755, -0.16483101037932738, -0.13746010921205112, -0.11150932508723185, -0.1032285342349799, -0.0817826953684371, -0.08628272820537053, -0.10535840529673672, -0.11325065774180362, -0.10580299078601871, -0.14327629384713375, -0.1483181031854996, -0.16450574777948676, -0.16818732625373561, -0.14511817077054973, -0.15613911344671752, -0.18877514154391145, -0.15678572760615184, -0.19102202059633205, -0.19440628342003635, -0.20102417332163963, -0.2197883351092447, -0.2603518747496622, -0.24117028412971575, -0.21531981477713918, -0.24502874818794368, -0.267368178564502, -0.23852196762410832, -0.20890834841707742, -0.19252576604432864, -0.19345908900658315, -0.17485368301414067, -0.1480681507815054, -0.1525216580157696, -0.17075468284396322, -0.22022589618498564, -0.20651867426898937, -0.1952746439965791, -0.19491091665692792, -0.23128854900058135, -0.25214276295375276, -0.22355657693374784, -0.1874821767160771, -0.2044159231968068, -0.2130346011915616, -0.20573888134761545, -0.21125847881017432, -0.21507269518902805, -0.23481698184585703, -0.23193253522672094, -0.2292914641744644, -0.2233852175050743, -0.2534165727700844, -0.26252119584946226, -0.24124053370903278, -0.23849775665355322, -0.24860796633024843, -0.23608765279120397, -0.2535382464083184, -0.26420910084533117, -0.256318577911992, -0.23874782342032064, -0.21112445687338274, -0.23746241762907078, -0.2578584737943257, -0.25227418539333285, -0.2744642478082033, -0.27631446337705073, -0.28968579654108606, -0.26841358433024987, -0.2766317058674876, -0.2785131561643154, -0.27960097583621585, -0.3005974378451158, -0.3180674831544691, -0.29807738154447794, -0.33903810083854147, -0.3367094551543715, -0.3529007371608398, -0.38931034867659065, -0.4106659930609359, -0.4080920189609251, -0.4226266706042464, -0.44158781310517053, -0.47837651314921015, -0.4775158840145055, -0.5213820532775227, -0.5176731117573021, -0.5220488794922492, -0.54091398477941, -0.542725452171264, -0.5555713082656017, -0.5477898663952108, -0.6187217948083615, -0.6271766014371795, -0.6307383862737008, -0.6734163614070794, -0.6845911795556744, -0.6584517676892677, -0.6677358796030779, -0.669806032146822, -0.6480589364654619, -0.6434045193577339, -0.6771668873247074, -0.6910168928060448, -0.7240068575778029, -0.7117814282536488, -0.6956211290489476, -0.7178205240633972, -0.7024671849820356, -0.7106985008266928, -0.7058140143447896, -0.7299462900300308, -0.7658434399567873, -0.7658752042626825, -0.74791891317866, -0.7572732199657026, -0.7624495437092325, -0.7812050877157127, -0.766995596557306, -0.7946043047677865, -0.7939754475544325, -0.8036237446399292, -0.8141214702819225, -0.8087109970669358, -0.8070079812340221, -0.8238883373979652, -0.8060803156658369, -0.7945838468104053, -0.7880765567995285, -0.8153926641012341, -0.8083901896457787, -0.8256125681286028, -0.834352589851815, -0.8295934750172471, -0.8469589614420827, -0.8628763743813698, -0.858405530602386, -0.8509520863786152, -0.8408293210835727, -0.877154617895813, -0.8711622611771417, -0.8928363040729024, -0.8354189326578734, -0.84530561806683, -0.816732787163526, -0.7888029956268355, -0.7459820632982843, -0.7525339319878138, -0.7532759653568677, -0.7488390738664084, -0.7464930008379009, -0.6999727263770237, -0.6937638694283143, -0.6823006622167479, -0.6859328179113159, -0.7275881602939338, -0.7323171139937956, -0.7248052369721668, -0.7063117927983358, -0.7051027084383178, -0.7285002834630239, -0.7354721038944481, -0.7544954915219463, -0.7602847646709946, -0.768991083384924, -0.7872714848395596, -0.7619971100272287, -0.7607753629327891, -0.7627600341936553, -0.7497055403149153, -0.7422401403194503, -0.7357547366302047]",True,0.8000,0.4000,0.4000,0.1000,0.2000,0.0100,2.0000,True
58,nogo,Correct Rejection,0,2.0000,"[0.0, 0.029446957478433594, -0.007319464064011974, 0.02437767752890941, 0.03304473060250903, -0.009468654419945925, -0.022270198587943442, -0.030641589960765468, -0.029143040204302834, -0.013433518463891531, -0.028678252344467303, -0.016508063905200064, -0.0029581656057901303, 0.015312050140192093, 0.005745492438801861, -0.013972290468659665, -0.015324469233221219, -0.018345550008410816, -0.011588983849648222, -0.015615967755305738, -0.028961712113066102, -0.007211393015050797, -0.018725120502851942, -0.03143853684991476, -0.04466119184901616, -0.04569831421533151, -0.045063557537193294, -0.05199412921241962, -0.07859379525477611, -0.07541880529294033, -0.10162971270979815, -0.10922942550660215, -0.09678169660139976, -0.08442932501195347, -0.06834843163019005, -0.08573741009476327, -0.08901005798535963, -0.08183642599559038, -0.12396500890083183, -0.15342927201035156, -0.18890152590253623, -0.18202991586722295, -0.18874858569436698, -0.2336068397873294, -0.2434165320440916, -0.2494086219393784, -0.22583128653560608, -0.2219409306565861, -0.2232412603195206, -0.22516244510994457, -0.2273321132388862, -0.2592767342635023, -0.25317469470735093, -0.23836105870552637, -0.23073236081230167, -0.25458499902876186, -0.24890362884797146, -0.2639374159350132, -0.286776808133955, -0.27854064941010953, -0.2640333659531482, -0.23529130493071357, -0.22511112939196462, -0.20325186362458247, -0.21831225166016094, -0.24932504058333185, -0.2520198087853725, -0.25955208825540815, -0.2777677381602603, -0.31754183309354844, -0.3382575915167251, -0.3710530717790225, -0.38514367064514005, -0.36165725210263755, -0.3671687054399818, -0.38453503708652703, -0.4065066555365011, -0.4037639601831107, -0.43170539518941825, -0.4379878246385543, -0.45682812978578674, -0.446850109300617, -0.478751537287021, -0.4967984412790729, -0.48491279178602364, -0.4774471278554814, -0.48210531441504, -0.4883191484657444, -0.5262999415098321, -0.5168162183332509, -0.5093075178861173, -0.4945639864276656, -0.4664710070521674, -0.46971780400869323, -0.4801461031862594, -0.5179393923676978, -0.5404651090511372, -0.5402432437676025, -0.49071130032393495, -0.48098178016096504, -0.4385544118638088, -0.4418936079459163, -0.4340369556147794, -0.45324026406646706, -0.42472545544253093, -0.4429099288805349, -0.4482825168566921, -0.4332482493880084, -0.4157908490180961, -0.4173336632744222, -0.422177063995224, -0.42292319344447904, -0.42093920373990035, -0.41032946451539404, -0.4152892187776928, -0.40345111217284496, -0.4263772598679617, -0.3969413958785719, -0.369388579691274, -0.3520792548785029, -0.38141615642326016, -0.37318249568736606, -0.4089076084213619, -0.40392517497505764, -0.3802447146615095, -0.390806080401972, -0.39263612674817944, -0.3932452847404557, -0.3522986884867815, -0.3481323551270448, -0.3470937075092019, -0.33822095096709215, -0.32808424849259327, -0.3365111231825979, -0.3224420592213375, -0.34464020597482653, -0.34166139950238217, -0.3805837390959433, -0.4230351952549398, -0.450638418727423, -0.40702032643911795, -0.37869415130649253, -0.3668255437064169, -0.3482837275263396, -0.3500294929407084, -0.36527067604578045, -0.37429004263220456, -0.42457555984333833, -0.4097934637794409, -0.41164526428967607, -0.40259740847593845, -0.4005866486982776, -0.41114974923485686, -0.3915124236592216, -0.3342391702275045, -0.3571228025821779, -0.36061441850470916, -0.34889282013681266, -0.36774152038869634, -0.3933465141153708, -0.40445800745783017, -0.4034715423036511, -0.4248081576944812, -0.44930767961284557, -0.4770521535173679, -0.48097170384994387, -0.4844309688409768, -0.4680182666697191, -0.46714704041504185, -0.5140855325019504, -0.4962603119803419, -0.5399213915791075, -0.5331388227680607, -0.5238619278162824, -0.5005692223099475, -0.5215662705436175, -0.5375181607790385, -0.5484213508877313, -0.5297884881081801, -0.5748481531958434, -0.6138317642144209, -0.6547732807939901, -0.6091967450992262, -0.5993722301694641, -0.5966193346724193, -0.5950792071157878, -0.5980980622689803, -0.6172476719681751, -0.6132254023881023, -0.6237649379107748, -0.5950365822958664]",True,0.8000,0.4000,0.4000,0.1000,0.2000,0.0100,2.0000,True
59,go,Hit,1,0.1700,"[0.0, 0.02769627598494664, 0.01830931457945178, 0.028597058742619495, 0.054713641275284525, 0.04455525784291692, 0.09871517412182543, 0.11601160030491964]",False,0.8000,0.4000,0.4000,0.1000,0.2000,0.0100,2.0000,True
60,go,Hit,1,0.2300,"[0.0, 0.028609820009004028, 0.0682759079291905, 0.07607925134662749, 0.05927868681748347, 0.04719973003530285, 0.05692285746850054, 0.06826151755147454, 0.04205083058946773, 0.05760121860049016, 0.08704918634872455, 0.0920112665277925, 0.08341297460013056, 0.10612581967213283]",False,0.8000,0.4000,0.4000,0.1000,0.2000,0.0100,2.0000,True
61,go,Hit,1,0.1900,"[0.0, -0.0019837075347444843, 0.030239993270923103, 0.03296133787512564, 0.03438603791385876, 0.03539729668887982, 0.06566645563986837, 0.06301773270027056, 0.09776734626070478, 0.10621510676205113]",False,0.8000,0.4000,0.4000,0.1000,0.2000,0.0100,2.0000,True
62,go,Hit,1,0.1900,"[0.0, 0.021661078683776105, 0.06350484937472978, 0.07476989158926207, 0.09460584409100564, 0.0813696655206363, 0.09102184386713555, 0.08149404912615955, 0.08739028583094145, 0.1330219281866758]",False,0.8000,0.4000,0.4000,0.1000,0.2000,0.0100,2.0000,True
63,nogo,Correct Rejection,0,2.0000,"[0.0, -0.03690637244172677, -0.03652240988788289, -0.02873062761205719, -0.041684332924026214, -0.03793279303031502, -0.05913622723992818, -0.04566288214318086, -0.09933061500683259, -0.10062393980931167, -0.10928675977192331, -0.10487542436131045, -0.09867965062166978, -0.12916869712302392, -0.13804686897186966, -0.1651915877586299, -0.17088437880686785, -0.14206491303534902, -0.15829883560713734, -0.18048875791554614, -0.20398662043177726, -0.19258782931861704, -0.18162313715909306, -0.1694932307677357, -0.15255009991184276, -0.16123852080282883, -0.16158730429585785, -0.19877712207236195, -0.17129187388589767, -0.19623310211115136, -0.18973547295407073, -0.18614049188779852, -0.19174843923264867, -0.20128158507705038, -0.2374155107936795, -0.22925586910720802, -0.21979182104719483, -0.2533197772862886, -0.2579141927851667, -0.2741924677380512, -0.27883480960057877, -0.28017630150185585, -0.2521375506972872, -0.28828399671856575, -0.27429076958987963, -0.27538447679363093, -0.27435948284991646, -0.2595625983693289, -0.24576126678679303, -0.2894059294596649, -0.31661213009254524, -0.31749034318078045, -0.32272059010427595, -0.3149074962586647, -0.3171500497428931, -0.3122054532964123, -0.32274995260763867, -0.3468822849508699, -0.3853354283650915, -0.4047578091023457, -0.37920354487716923, -0.37830043601817853, -0.3646984885897998, -0.364891358269549, -0.36909643249489993, -0.3516532415629121, -0.3387665014906303, -0.380631312530605, -0.38646752156838926, -0.38494835161518637, -0.4032240287688799, -0.38335032039078276, -0.37371417675529867, -0.36693466839434374, -0.3149094207051886, -0.3220790016377792, -0.34323732534942714, -0.33547336355999274, -0.36198146030049677, -0.35701519976724544, -0.34504646080458196, -0.3591090680423091, -0.3612558377596034, -0.3460661590676378, -0.3051352309103461, -0.28345483630743995, -0.28354297242882004, -0.27925478566646633, -0.2662734594220864, -0.24725133145972822, -0.25439968727299217, -0.24103714004077095, -0.2665162135836509, -0.2977463657114991, -0.30831123694214196, -0.305816207149099, -0.29803328374365984, -0.2805334384270426, -0.2669432943006259, -0.26820932095907907, -0.2645025497697705, -0.2845369519116336, -0.2610373648159783, -0.26431211411366917, -0.2632846280098948, -0.2781470487658895, -0.31943901760951493, -0.27977092187899144, -0.3032632935614159, -0.2930473945356633, -0.2846107829256214, -0.2813628121365182, -0.3086435250753835, -0.33993390960761755, -0.33023902898894725, -0.31304762255493196, -0.382843925554245, -0.38301314750837995, -0.37042176749615724, -0.36177030660309584, -0.381054463856483, -0.39558209595127314, -0.36413771241091547, -0.36913898319258764, -0.3479043113292422, -0.34580949482811985, -0.31159117436187306, -0.3416375009418083, -0.32380258059657585, -0.3376727247123078, -0.34513730556599637, -0.3392073539900376, -0.34692207137542325, -0.3184993201024358, -0.3326433090961812, -0.30769173958372836, -0.28877197512534775, -0.29090515381863163, -0.34199664462576024, -0.33783527469402974, -0.32998243101584074, -0.3485674925106008, -0.3480341760927238, -0.3803939617313469, -0.3386555396229821, -0.31346815096178654, -0.3278966474128047, -0.32969496309680135, -0.34824473041527926, -0.3394944329653423, -0.34696652607731504, -0.37195949835525954, -0.38513891785215876, -0.4172297916982999, -0.44218312198473786, -0.4764264743329936, -0.48261913476266144, -0.4920001996297407, -0.5394560061539443, -0.537367005409241, -0.5464217710736533, -0.5252033244263877, -0.5266824684271337, -0.5116792092424939, -0.5402006084759278, -0.49833176069634993, -0.5317067557177951, -0.5618142700166413, -0.5421431548549789, -0.542913552643957, -0.563994734452173, -0.5547184374494682, -0.5783642859782779, -0.5454822608279883, -0.5781298396012866, -0.6042691406178191, -0.6414387173534524, -0.6445864590460958, -0.6550166487141317, -0.6578494779157755, -0.6411758110428255, -0.6467250285886793, -0.638369482227953, -0.6361710106635835, -0.6548222799885113, -0.6281964216942905, -0.593153125829188, -0.5924067563069951, -0.615041908170197, -0.6325274543236868, -0.6207379193056196]",True,0.8000,0.4000,0.4000,0.1000,0.2000,0.0100,2.0000,True
64,nogo,Correct Rejection,0,2.0000,"[0.0, 0.005965669901608744, 0.016846162739827482, 0.015594665581752765, 0.04043957632078856, 0.02197759336973232, -0.019036291687284653, -0.04551516582048635, -0.033590794138221566, -0.01523455916593712, -0.023310795272843698, 0.00946947391821244, 0.06381719538278621, 0.08366724046637178, 0.05598618221255966, 0.029750947401229678, 0.04101027567233745, 0.0656940150250386, 0.08762966626402022, 0.08745931034417673, 0.06979114909505825, 0.038363722993452365, 0.04719784095576346, 0.03913938813705327, 0.026072964556621413, 0.003833353958058096, -0.003793514081199049, 0.024274953936110438, 0.0016232558627751678, 0.02762334681426452, 0.048772520230303415, 0.043194711494216415, 0.04403262761958599, 0.04595496229999492, 0.04328868366720871, 0.041246358022042726, 0.052459222111075066, 0.03656403566993084, 0.03845233881419803, 0.0009040401411262097, -0.002204429575330655, -0.007341870954307701, -0.03909675924192143, -0.016145464208674114, -0.01150696304526804, -0.00016414964730700893, -0.022233363981954073, -0.001928809868360283, -0.01808730730419903, -0.03853098700549423, -0.025434416456779275, -0.025949758305154867, -0.035165004711959116, -0.032632195118945, -0.01364654361253179, -0.0214628092205255, -0.03101887060905007, -0.0383387189946888, -0.06275237424447232, -0.06620263362465202, -0.06954742519956403, -0.03990537916561175, -0.048143782429199346, -0.033650452861939545, -0.02008301005405822, 0.008739140246545957, 0.03546633425896699, 0.056131800207997344, 0.04857283117516742, 0.044474643215736506, 0.03747491192719873, 0.028988370001901638, 0.02027713212705451, 0.004235032002698487, -0.015633313628706322, -0.013858753478441585, -0.03895358697474389, -0.05156007905361675, -0.07863191511068633, -0.10384721526279142, -0.11283824263424108, -0.13823278775971815, -0.13641525827869136, -0.17587862169350968, -0.15972562388326203, -0.11853232751647162, -0.13478696956722946, -0.11262270868927562, -0.1312041161109349, -0.11403751845821024, -0.07523330848672552, -0.10628688176067844, -0.06562281637109593, -0.07261880074613528, -0.08356290855423432, -0.05122601762114345, -0.06625899615546807, -0.08812776201729546, -0.07285449526233338, -0.04865229304127107, -0.02798280662314293, -0.009390608649934167, 0.005519375099865087, -0.018534110080742856, -0.028531006535406044, -0.002740105719025901, -0.007597007726575257, 0.006061661125992864, -0.031117154795566863, 0.00026699827248452546, -0.002977291291363343, -0.024233582101145804, -0.009407485064064624, -0.00527391560428303, -0.03835228505211235, -0.037655140129410195, -0.056129665538137655, -0.054667453292741475, -0.04937457168979578, -0.06192677118895199, -0.04640661264806045, -0.018880471137446782, 0.0017623322074222028, -0.001757418247483539, 0.031815702886274035, 0.011988562580310676, 0.021805702579965572, 0.007523722906599488, -0.003273361125627738, -0.004611269920738027, -0.009273147047326463, -0.011543604701678244, -0.023317981772644117, -0.01495395604422005, -0.030103070279548814, -0.026963217777820937, -0.02908355005294913, -0.054554375560425486, -0.06196830465869985, -0.03530191097512629, -0.0802426523792946, -0.09185959441406658, -0.08691648378686621, -0.09675662476523336, -0.08347314300458027, -0.08450464195787354, -0.11050346220498941, -0.06619466424765227, -0.06900312426237991, -0.1660713730113959, -0.1713974250897242, -0.1638114592253629, -0.16616739070303932, -0.18609987836327996, -0.19514012324102456, -0.20342298093793076, -0.21476328876495882, -0.2346780886194034, -0.23853302033132598, -0.26111623114950105, -0.2450040455548334, -0.2387177405936528, -0.2363676679600806, -0.2596837365166443, -0.27879609142264555, -0.2838538420636072, -0.2926805801505598, -0.2931063815024342, -0.3114144071197005, -0.2806822718379883, -0.2550726415177281, -0.2607202197058681, -0.26229693042434465, -0.26060956881623165, -0.2697394140531884, -0.2616517569585066, -0.2421127784644831, -0.24254789861441053, -0.2693553955623439, -0.2605838436622887, -0.25643325943803474, -0.2532565384683621, -0.2445048389896365, -0.271971323627504, -0.27795313549724, -0.29980120783985514, -0.317667158809671, -0.30752429729036784, -0.29969961855994875, -0.2680400522610439, -0.2957228379802195]",True,0.8000,0.4000,0.4000,0.1000,0.2000,0.0100,2.0000,True
65,go,Hit,1,0.1900,"[0.0, -0.005032698652239475, 0.023947438052058977, -0.00044643092527752587, 0.02469766222089434, 0.06302845910026883, 0.05757834675274843, 0.07540132875860447, 0.09121859533383003, 0.1126721038845013]",False,0.8000,0.4000,0.4000,0.1000,0.2000,0.0100,2.0000,True
66,nogo,Correct Rejection,0,2.0000,"[0.0, 0.006457475125285125, 0.021385123594719224, 0.025649359916518115, 0.005411734761336776, 0.03106612696991224, 0.041865108537227594, 0.00637062462786795, 0.03192929680256274, 0.008912330611089668, -0.010154647832751131, -0.015242347231522575, -0.040841716309268916, -0.05377993596944879, -0.06945958180655663, -0.09036205309919862, -0.12807929896824136, -0.13084851609017753, -0.16552524904931018, -0.17137580242369044, -0.2082091711361107, -0.2086608104319365, -0.1944559191715384, -0.20672518414126245, -0.2042256944340292, -0.2202847315163798, -0.20756028001649157, -0.20669624046809557, -0.22794856329912355, -0.24264256766531284, -0.25741542720069915, -0.260010297488639, -0.2630099547238485, -0.27466374733398136, -0.27729663744863414, -0.2415988122698608, -0.22216064538300082, -0.21398293991418652, -0.2550367450277254, -0.2549115719434112, -0.25368495955466996, -0.2724017012552003, -0.2630399258857632, -0.2805368167188534, -0.2650152258007555, -0.24348028245675427, -0.2489847290940252, -0.27365152484278327, -0.2928265002866177, -0.29885486309192294, -0.2947370252242482, -0.3008591860822255, -0.2984043570893679, -0.2901591137011308, -0.2783762638242689, -0.22883465510670636, -0.21731648383568383, -0.21267956798333817, -0.21466355202711257, -0.21308582214412816, -0.22207052696701374, -0.2276478176752613, -0.26001952091963537, -0.2700526465829281, -0.27941659342572905, -0.2928027344114522, -0.2911029525290216, -0.3099842038910529, -0.33041088450646994, -0.31863572743291324, -0.30523914878540004, -0.3027227221241044, -0.31316328272509786, -0.32945977204705257, -0.2988255722486791, -0.31549528423299616, -0.3401452160948412, -0.3005092265766586, -0.2999168806045711, -0.3063856044917788, -0.29810013265534385, -0.2988454989775906, -0.2690777623815223, -0.22213804014521898, -0.2242657631770022, -0.2509417886033777, -0.26420769524786475, -0.2664446995706572, -0.2683612449360264, -0.2688432564160624, -0.2747865657277635, -0.2762593768452987, -0.2926129913269283, -0.3122845704609901, -0.3275207486056339, -0.33386281956895136, -0.3269783034267504, -0.34658160172145625, -0.3709835841958489, -0.4038974246692158, -0.41481253768956805, -0.40863930657540104, -0.41319642140901586, -0.4212010735797774, -0.38528946282978843, -0.37660318666526604, -0.36208490985089, -0.3670993857591599, -0.3556163128346339, -0.3662249223421495, -0.3290944155345198, -0.33115925117101774, -0.3689861013675563, -0.3319354765287841, -0.3758607164592793, -0.3788948495091144, -0.40776105406054586, -0.43881850837202124, -0.47354563176353653, -0.4632927577926729, -0.48530000702248466, -0.4743827101367115, -0.45437398807371565, -0.48531689310117554, -0.5146155015849888, -0.514834265163649, -0.5080811205769241, -0.5121210493195024, -0.5125035024212709, -0.5271973135122823, -0.5627214306365949, -0.5940122129404074, -0.6039359255500735, -0.6017689388653898, -0.6070526333240625, -0.6157358571367533, -0.6194429108563629, -0.5946603726919454, -0.5906092742386626, -0.5771733745535194, -0.5714963055533928, -0.5598608721539725, -0.5531212990234369, -0.5124774829703471, -0.5341697626876148, -0.48545153426608645, -0.4959475459327372, -0.5277603108665893, -0.527602725236327, -0.5558486503071217, -0.5432477867684088, -0.5380515834149358, -0.5818415660081777, -0.6151638224764054, -0.604674085865058, -0.5511849839532059, -0.5371239171719977, -0.5667617103114516, -0.5678040147392241, -0.5694786291165743, -0.5716453149652309, -0.568863221178895, -0.5488525364793166, -0.5660466410315613, -0.5287483476069446, -0.5294590772477996, -0.5502775645528845, -0.531955040823034, -0.5775574363906819, -0.5677286946351243, -0.5768677923776063, -0.5964385669803965, -0.6145836783287532, -0.6314021467910512, -0.6348462486879954, -0.6371631443329938, -0.6422567296390984, -0.653223286486456, -0.6425501187086629, -0.6561428717953751, -0.6579742547677785, -0.6886640515561946, -0.7074073113009213, -0.7457815283486926, -0.7804747880540669, -0.7824355305659345, -0.824172268519572, -0.888227919314628, -0.8714846965844938, -0.8750251367136701, -0.8791412184807296]",True,0.8000,0.4000,0.4000,0.1000,0.2000,0.0100,2.0000,True
67,go,Hit,1,0.1900,"[0.0, 0.00538326287121676, -0.009921726814088273, -4.907632221982407e-05, 0.020032481665889314, 0.042533571546476405, 0.05250826693616476, 0.08905972402470522, 0.05833807719788977, 0.10264784886339567]",False,0.8000,0.4000,0.4000,0.1000,0.2000,0.0100,2.0000,True
68,go,Hit,1,0.1700,"[0.0, 0.01866811008807416, 0.06653909105330863, 0.07972490371477871, 0.05008455539726016, 0.08989343465461003, 0.09973558884458862, 0.10886179018775702]",False,0.8000,0.4000,0.4000,0.1000,0.2000,0.0100,2.0000,True
69,nogo,Correct Rejection,0,2.0000,"[0.0, 0.012869825112055403, 0.030085034808085283, 0.016870009303297212, -0.011712007537459275, -0.014662255292998803, -0.007990059469676654, 0.01661043372232876, -0.011674024111728635, 0.014168890725166115, 0.01743044066316126, 0.021980030693049157, 0.019560877768501555, 0.010111166844487079, 0.04440655325410586, 0.020339837711439483, 0.03128139324150266, 0.04520817614006739, 0.009158876733655383, 0.010289286883145324, -0.003986822838652872, 0.0110527581281566, 0.03309098604803486, 0.028985058316763714, 0.014535656122060347, 0.032476241162317336, 0.01079398212436214, -0.004753143291514356, 0.014578544307944332, -0.012833418434128423, -0.019572172667481798, -0.03343465974856058, -0.039522058470206234, -0.05704916364611085, -0.06941940162240583, -0.0742855475007069, -0.09139964138163952, -0.09414686310984444, -0.09492651244253944, -0.0796610717917792, -0.10367496602096676, -0.06182150336247035, -0.08448286410667989, -0.08506395483380781, -0.05709268518279757, -0.0965464598331763, -0.09147037302690147, -0.061816562524202506, -0.04578224822468745, -0.033835088000956796, -0.006417881450304339, 0.015035899561078564, 0.024159715691442152, 0.030973409750217687, 0.04960736707961594, 0.04985174361645118, 0.026126716251061232, 0.02435120296929566, 0.025346760042952773, 0.026568203677894472, 0.04595710255951718, 0.01195928856345628, -0.008022159502927721, -0.02628246847680723, -0.06652347398910595, -0.05144536554743996, -0.053590921551583015, -0.009578624106112689, 0.013505359893414282, 4.3122774839718034e-05, 0.005144891690791457, -0.00721404103565252, -0.008330513029840083, -0.04537527399543159, -0.04025121803214271, -0.027719706759862586, -0.0421001551301578, -0.07334811776021932, -0.08153403522943463, -0.07500665306296862, -0.08348633065659392, -0.08900254169421028, -0.07030447563332619, -0.06757694545805533, -0.08061801320256488, -0.042132900867190765, -0.05609029702327984, -0.08485837420827447, -0.06181812697339897, -0.07512015040940072, -0.04103697976665402, -0.040486847480292215, -0.06814248733439884, -0.05572565588370285, -0.04495507350339957, -0.067969858833339, -0.05302890339926365, -0.05318622300856612, -0.013964629448040042, -0.023326598097229763, -0.066404735194938, -0.08271498908278498, -0.08117481839482012, -0.06210463800191225, -0.07414829186609082, -0.09331940863821243, -0.08379809060714906, -0.09625859127028025, -0.08553302634195546, -0.07886792248157318, -0.0772581554780756, -0.08915625986001444, -0.06852322405426405, -0.06645590626193336, -0.11341349555242915, -0.1558415480750947, -0.16413698128247134, -0.17660391426545474, -0.15539315486076694, -0.1324963478255434, -0.14978895294611158, -0.1770447820862627, -0.16424209451030133, -0.1957455732508603, -0.19295355607921685, -0.18764682999539903, -0.22764514263801677, -0.26699783603491967, -0.2893756114393857, -0.25704446564949845, -0.2614347263793398, -0.2309534868581947, -0.2202526709323243, -0.25057697073801294, -0.24948532301597368, -0.2129863751831653, -0.251633822791806, -0.2335768999620976, -0.2375054186840212, -0.2457942781520443, -0.2529143439980788, -0.2472017519552989, -0.2793989953399952, -0.27536676587267617, -0.30518845853287446, -0.3564742645572758, -0.41029562420336235, -0.414701952671376, -0.38858015808176627, -0.36836578953546023, -0.3989918044276121, -0.39143403016026324, -0.4051833141271901, -0.38368566286514294, -0.3887695405680041, -0.4196005756200779, -0.42232771765391125, -0.4308088578172372, -0.4485244918601847, -0.42271531347930413, -0.4441116501336517, -0.4605359863993527, -0.4746658834133165, -0.48631876377388106, -0.473825818368521, -0.4637771884138291, -0.4870366052885239, -0.4785726432426574, -0.48472765993780503, -0.4711230134211137, -0.465316314757127, -0.4530640118636503, -0.4508398303520728, -0.47410372102126236, -0.4382858672501186, -0.4154692559953925, -0.4220572840621128, -0.433793912027746, -0.4325091626954449, -0.4424840919390185, -0.4645685365359161, -0.46130159768594614, -0.42542406271473526, -0.43011600346100753, -0.4531562401071855, -0.4372510353776759, -0.43343544251599275, -0.4580203862703464, -0.4378414360770644, -0.4539378570472768, -0.47532086831566345]",True,0.8000,0.4000,0.4000,0.1000,0.2000,0.0100,2.0000,True
