trial,stimulus,outcome,choice,rt,trace,timeout,w_s,w_n,threshold_a,t,noise_std_dev,dt,max_time
0,go,Hit,1,0.6000,"[0.0, 0.04668117744762095, 0.044804380990076116, 0.020834332245662855, 0.05282131030513904, 0.09005641576107504, 0.07630123285468883, 0.0743205374525995, 0.09009335079422787, 0.14729479001185147, 0.1542576893935654, 0.12125532118349142, 0.1275090145112696, 0.1337710860455169, 0.11641866138566577, 0.16082168111213582, 0.17144736106527939, 0.19901198787074395, 0.20113781235171133, 0.2015983819554465, 0.21934003749430345, 0.23789279942931135, 0.23826928443966475, 0.24525063246214965, 0.25950022745652196, 0.2665693210154029, 0.270953841013766, 0.2818265459228215, 0.270649549598301, 0.27121578386837486, 0.29659011267894825, 0.26586302150855257, 0.2410560727522822, 0.25606669840050844, 0.2826211149991282, 0.31377913490959447, 0.33033448222563805, 0.33399126600826673, 0.33904137087579417, 0.35267035148337367, 0.3630003655503866, 0.3746198298421656, 0.37670892529446026, 0.3945089060510179, 0.4344884270514885, 0.46467655194096286, 0.4752477050893171, 0.4692390073155161, 0.47346768597865, 0.4823006184754604, 0.5019452377659249]",False,0.8000,0.6000,0.5000,0.1000,0.2000,0.0100,2.0000
1,go,Hit,1,0.5300,"[0.0, 0.008561406106618737, 0.021044717408514282, 0.020835682121647846, 0.04936592421126977, 0.010153418300000536, 0.01789091475699959, 0.057727142633220874, 0.05023444386200569, 0.057717226549486925, 0.060516535034950254, 0.06322087898065755, 0.08826589127475129, 0.07999423064743476, 0.1260751902963665, 0.16688051045309368, 0.1490760682990919, 0.1639225892301266, 0.18892376023049934, 0.16048036538944357, 0.19428822960009534, 0.24287203731629753, 0.23460911242125398, 0.2886916261973194, 0.2870891091993475, 0.29408683991778206, 0.29601092680553953, 0.28745656082900173, 0.28040163163366116, 0.2728565844468007, 0.25611952411615707, 0.24749964921554385, 0.24544076531950804, 0.2752059528782915, 0.2805173718640835, 0.29878732938544444, 0.34272884225881073, 0.3850351881927421, 0.3930683756052005, 0.4261367891601006, 0.4450572793233514, 0.45431301940416746, 0.47009903018228477, 0.5101172861475101]",False,0.8000,0.6000,0.5000,0.1000,0.2000,0.0100,2.0000
2,go,Hit,1,0.8400,"[0.0, -0.01856899320621335, 0.023209830368511118, 0.029469673151125843, 0.05657742131310779, 0.06238832644838203, 0.06590194472115977, 0.08515526768635887, 0.086342035572819, 0.06705983487408716, 0.07231730705424456, 0.08393094249600438, 0.11378818718786268, 0.1132060652105497, 0.12898499876328934, 0.15252568797437627, 0.10920441894570784, 0.0996216149166706, 0.09372174672027477, 0.09714237192513439, 0.12856937348293268, 0.169090338730976, 0.1957472861706715, 0.2380013985966493, 0.22452630893106457, 0.2391303273856503, 0.24827012925398897, 0.2495869513687342, 0.26062864114841783, 0.2649639043976427, 0.27281867807058224, 0.24739916574842402, 0.2591731649402654, 0.24427092030052222, 0.2753126139463077, 0.2737621891037058, 0.28749508023594406, 0.29714730539765133, 0.29672255561814076, 0.3033507941958284, 0.29405732894122505, 0.2717798838563179, 0.2746657149186153, 0.3045018960350233, 0.3203906695650694, 0.32094338802097805, 0.3680535209720291, 0.40928343624161956, 0.4272612407253668, 0.41057378570894, 0.40754138366782017, 0.3984929835936033, 0.4181777748659987, 0.41633997308265086, 0.3926092448213026, 0.4005473802936694, 0.385198397045433, 0.40546464763755813, 0.40881676499329617, 0.35021517274288483, 0.3321940087940587, 0.35969910295917124, 0.3879214172125022, 0.37641210272331344, 0.40941022857517606, 0.40083886135226804, 0.4087021968656425, 0.4243692155395603, 0.40867642958121053, 0.42801959398999706, 0.4195225051567716, 0.4202541082301162, 0.42990966450832246, 0.46734433467727876, 0.5009718570868875]",False,0.8000,0.6000,0.5000,0.1000,0.2000,0.0100,2.0000
3,go,Hit,1,0.7500,"[0.0, -0.03630544779466932, -0.004104868230867906, 0.006648444990542174, 0.0066008728937661035, 0.0007831761369816378, -0.028690892720994565, -0.023932720464289563, -0.035102824750767335, -0.08999426007008993, -0.043547201541631574, -0.02972714362128737, -0.044179754494941555, -0.017178222942159063, -0.0036536906171875175, 0.002080036559210765, -0.0059210423184123465, 0.027551446078829443, 0.019543690181331844, 0.009068248891270596, 0.01680953244956218, 0.008538900293190595, 0.015009095382345381, 0.028340919167015224, 0.0644641925530638, 0.0691401937675775, 0.09131126272193923, 0.09180620946096173, 0.11343019112521854, 0.12338251664011982, 0.14452540915112624, 0.1497838467768833, 0.15147780734092944, 0.16816482329067942, 0.1784638170658311, 0.20744635101244444, 0.20933331256831145, 0.23982446392150958, 0.27787337785865407, 0.2665400610633655, 0.26072132861302544, 0.25174801019353044, 0.25554565351741815, 0.26666345274361036, 0.2726787298289322, 0.3123970035191834, 0.35362841086464747, 0.33341237565965226, 0.35154722924840975, 0.3849942865106414, 0.37424651704749745, 0.35265474582723627, 0.35751197732305356, 0.41028445520908186, 0.41906156062971683, 0.4212040635845235, 0.42117113865185646, 0.3927225345560848, 0.4011301118642095, 0.41120615131634614, 0.41279303831964353, 0.4303103942953321, 0.44142715342559014, 0.450123072357618, 0.4759077650067694, 0.5158171356510989]",False,0.8000,0.6000,0.5000,0.1000,0.2000,0.0100,2.0000
4,nogo,Correct Rejection,0,2.0000,"[0.0, -0.021954245718019762, -0.029955904568528445, -0.021424979931081015, -0.035944027082160865, -0.0224149152916029, -0.017728116970668825, 0.021229503426630922, 0.03649695546272427, 0.04488390425134583, 0.04021625315989158, -0.0060817404930476535, 0.007828269598018661, 0.023939674259363223, 0.03163679420331482, 0.0038502092807809994, 0.015243671526180644, 0.02411109994154624, 0.005009336701582434, 0.010392891889065049, 0.021011402432689896, -0.0005572017573969856, -0.011751638814906408, 0.01615555520741738, 0.026498478654328965, -0.01080920088659302, -0.017545558483180047, -0.012059949350934053, 0.018075000091050165, -0.01801641299728596, -0.039489672000588956, -0.09470454954375812, -0.07059914759715158, -0.08217980418939015, -0.08758731315387405, -0.0801615897404904, -0.09572430857024608, -0.10393332657500108, -0.09813719739084092, -0.09812367434371848, -0.06853854732599203, -0.06948478538894766, -0.08922785878959211, -0.11905660792253805, -0.09325227332869443, -0.13402039957386075, -0.12460215423032234, -0.1246887222260065, -0.1076998633996602, -0.13522843251803812, -0.16502782936269925, -0.15205454509154306, -0.13571637275311427, -0.1328780679197162, -0.14795982058424179, -0.16380529752229633, -0.12283220591974556, -0.1425524998368198, -0.11540077227994491, -0.09979930654552657, -0.11663651466378272, -0.13612112781448776, -0.16032061486926624, -0.1674792373168639, -0.1519752674269491, -0.17480808556292202, -0.17881215254024133, -0.1804773361076212, -0.19033638321019747, -0.19079752018792187, -0.21970487299256283, -0.2502347669087392, -0.27286396036461896, -0.2810202889813915, -0.2897489946901966, -0.29577323875538764, -0.2789345930891826, -0.295296113004568, -0.3225187216107526, -0.28281162466340143, -0.28482124235530976, -0.26651165005842553, -0.29131305642059063, -0.32047290577013865, -0.3231710307736752, -0.30607757815951436, -0.2918883899184069, -0.31886819123958016, -0.33762287462681956, -0.32343407985645395, -0.3438317506119438, -0.3467304439534239, -0.40628590164249667, -0.37767822581670507, -0.3896077328311283, -0.38489153810158466, -0.4184570496284029, -0.4240250759586219, -0.45915903954693604, -0.44055573907163575, -0.49398717679211507, -0.46935927377350406, -0.4543878590747659, -0.45104264606159417, -0.4455830273193586, -0.5214046403870993, -0.535761243224832, -0.5610360797219927, -0.5563049646661514, -0.5527723447973663, -0.5469786435940541, -0.5535473153135175, -0.5073703777472919, -0.4955726874752393, -0.4826232733883466, -0.4812961774375596, -0.47532025524135096, -0.46335303601226424, -0.46928891720388355, -0.487364278515947, -0.5400417855570492, -0.5425385976229109, -0.5482603157955563, -0.5449024538508892, -0.5502994164338305, -0.5522769943296829, -0.5995391161277948, -0.6347430925036432, -0.6435475733512076, -0.6707209159274528, -0.6936936046704855, -0.7205135570767474, -0.7289011854357786, -0.7214590929705256, -0.7288398651896659, -0.7507481245642194, -0.7477355752708694, -0.7849282794028628, -0.7607074333869062, -0.7749066639740734, -0.7780146907209247, -0.7891895897178912, -0.7695703750301041, -0.7851635125594936, -0.7934889309208528, -0.7750647814062972, -0.7463909878207167, -0.7430823792811349, -0.736115859839666, -0.7776305067570703, -0.7658843448012487, -0.8019361392416627, -0.8230490855659867, -0.8308276172188714, -0.8246261754893994, -0.8453342990260401, -0.8648251414915754, -0.888232278277578, -0.9022797023114087, -0.8907711183661376, -0.8611265101187061, -0.8203172100452428, -0.8324473115633015, -0.802909598781901, -0.8223718170219267, -0.8205748576267254, -0.8466866151239028, -0.8578743758509852, -0.8176118104284698, -0.8189897400800161, -0.806343575855286, -0.8204865277318373, -0.8891021915960672, -0.8700676643881874, -0.8907699162866181, -0.9047733547968547, -0.9200945078681937, -0.9164080114633979, -0.9367688556108782, -0.9394607790849226, -0.9334636059175189, -0.9577703518068892, -0.9385412087916667, -0.951880905712411, -0.9607193732916974, -0.9852667640111422, -0.9671473095084822, -0.9633118238261795, -0.9545798716429282, -0.9262388111804676, -0.9850884911977146]",True,0.8000,0.6000,0.5000,0.1000,0.2000,0.0100,2.0000
5,go,Hit,1,0.6900,"[0.0, 0.030700416615364927, 0.0681554398668957, 0.030337696669547075, 0.07054395200177621, 0.06772412074091337, 0.08788396718043327, 0.1348517112062282, 0.16628879230963284, 0.1827042229808724, 0.1723355964334968, 0.229566021856558, 0.2159959142761167, 0.2090811605845176, 0.23814413770299472, 0.24160559938389822, 0.2545813822438725, 0.25787047545710845, 0.30478852631517883, 0.32676670422002246, 0.33226614871547944, 0.34112081946413325, 0.3357208276086523, 0.34883134579987674, 0.364457210590004, 0.3800771827496382, 0.3538986827609637, 0.39148339782704594, 0.40938354981757635, 0.41447082458480533, 0.41646246301529816, 0.38961087102760783, 0.417750181687883, 0.43754736153554724, 0.4688720479603356, 0.4642473090824349, 0.44893256616269456, 0.419599591706681, 0.42610187423348456, 0.458304594963007, 0.4671984274175036, 0.44819414628374354, 0.4299286989300763, 0.4103889603056631, 0.4067620023743373, 0.40779842693533896, 0.44593408830077014, 0.45735723742738627, 0.47115824191543215, 0.481845324219714, 0.4635329545623167, 0.48270003636799586, 0.49164417345980493, 0.48901360579109227, 0.4916098854420284, 0.4431954469005935, 0.4527254233520837, 0.46324593354314664, 0.4928997701866138, 0.5014039203542466]",False,0.8000,0.6000,0.5000,0.1000,0.2000,0.0100,2.0000
6,go,Hit,1,0.4800,"[0.0, 0.0014783978165469665, 0.016711401598049465, 0.020532637319802198, -0.0012854929107987481, 0.020068505209098607, 0.018926651146985284, 0.030321181111154442, 0.04172994599047102, 0.08493978494771942, 0.11732631622926382, 0.11604186350152892, 0.1273905543936506, 0.1776904662544425, 0.18710680578132763, 0.199247756223201, 0.18274668947291184, 0.21897743734778952, 0.23388795836525475, 0.24135814335612132, 0.2527277391637049, 0.27745802666300634, 0.28388664515856404, 0.2808802023928324, 0.34159395442364043, 0.36682727035004703, 0.357644631504539, 0.3684318359308321, 0.3473233884469711, 0.34394528186860784, 0.34716061724110375, 0.3620812806471871, 0.39889422026782634, 0.4211590528587542, 0.43355262053634996, 0.43749058962535675, 0.45326023370706015, 0.4889397600477027, 0.5294725988871856]",False,0.8000,0.6000,0.5000,0.1000,0.2000,0.0100,2.0000
7,nogo,Correct Rejection,0,2.0000,"[0.0, -0.0025278079750020816, -0.046602254299318725, -0.0548143437559006, -0.07100043872382733, -0.05409084136012893, -0.04885306612850719, -0.05643392858368948, -0.06320009177197168, -0.059841999971405796, -0.06755086393147745, -0.04677305748665998, -0.04073162620454547, -0.012862678201170968, -0.05224092424511974, -0.07265504063882453, -0.07906724429876934, -0.06313370753121345, -0.04673365425425849, -0.04841435937046718, -0.06533986065620584, -0.09953176538117259, -0.09159191803965167, -0.08673638312774226, -0.07213760581642169, -0.07046415887127525, -0.035494493838243844, -0.030377665859696156, -0.02436250148621313, -0.057863010775368054, -0.09879558478894734, -0.1286165741210554, -0.12499540013925242, -0.089340285864114, -0.06490071309324279, -0.07294012274653457, -0.04603953313891555, -0.03745280227932318, -0.0570715357485964, -0.07768345457063167, -0.09967220337454227, -0.05469669163369595, -0.053751007335296155, -0.0745889871394238, -0.07125311229831624, -0.07640028793963136, -0.06325249486789603, -0.05311011697290885, -0.026795281132500518, -0.0435406909583958, -0.0451959402990862, -0.05447868120360554, -0.050315674171210335, -0.037793742705225675, -0.06111765969249873, -0.04898304850318702, -0.054578434773714116, -0.06278495816755253, -0.07615196693841444, -0.07553774134582053, -0.04795577442798678, -0.04647825128334174, -0.06843587334556064, -0.09127301665770038, -0.10541253382980201, -0.08672903475144761, -0.0757940399578292, -0.07556734409863002, -0.04161220942493267, -0.06943252441463446, -0.06295492790434712, -0.09312162483971666, -0.10652594362400122, -0.1196477164135892, -0.10704072210563292, -0.095166234282893, -0.09034855030329238, -0.05881402410367998, -0.012163233418598922, -0.0056527546131762705, 0.0050584813010493964, 0.007521842658243372, 0.03333413767090665, 0.04724675798434436, 0.05512692721866655, 0.06627633967172762, 0.023820516386483158, -0.0014423523211191357, 0.0033293596838230707, -0.01424347258763018, -0.02655582845944432, -0.02815410704475824, -0.04595579563560884, -0.030500414074356257, -0.02012363615927612, -0.02093992844860808, -0.024056315183898457, -0.013157524150336292, -0.012444025783226322, -0.03899684338239384, -0.04102303797964785, -0.04942199133328791, -0.05623124826759581, -0.05938702004023359, -0.06720194975756955, -0.09069691840824723, -0.09436420424770167, -0.07333861742184712, -0.07909582300634624, -0.06206109511904751, -0.10226774122166947, -0.0898238005624763, -0.08903258278541386, -0.09902891057214047, -0.1062174841771919, -0.07219210368591811, -0.1001184689678979, -0.08470818928913847, -0.09970474258666834, -0.10140046047285105, -0.12651294822056522, -0.12958924977939978, -0.16343492677158308, -0.1706374256364954, -0.19798309506352607, -0.20026426765297395, -0.18302129321546556, -0.20322243675015927, -0.22315084364914026, -0.230181443477073, -0.24240632413803498, -0.23088355500476387, -0.229701542142319, -0.2171640167584357, -0.23508239367786526, -0.2205583063716331, -0.22653693384672258, -0.22697059974132475, -0.21568049634660677, -0.23567096404580606, -0.24121894971581292, -0.253058497648803, -0.2604384209897461, -0.26582279066590936, -0.25899875670007816, -0.2782410806726503, -0.2877350846087781, -0.31900933508963275, -0.3065587028670893, -0.357736574515172, -0.3571654450467535, -0.3635582121403176, -0.3660063360547513, -0.35290406314224726, -0.3583591522462613, -0.3610516702622271, -0.36790661843366185, -0.3913717413751349, -0.3799728577289695, -0.3817418568792026, -0.40071411696576964, -0.37867759472065016, -0.3873243811151865, -0.39372098600692945, -0.4140094396146557, -0.4042203416004926, -0.42934490978504924, -0.41281736862122115, -0.4074474337223033, -0.4608643454929938, -0.43341443228832377, -0.42071157100633066, -0.42553105684486203, -0.41253915447068595, -0.3499723762039183, -0.3348835324767094, -0.31942031564607964, -0.30073018305650695, -0.3288931739104926, -0.31658144355397694, -0.35097518053117616, -0.3517689960023201, -0.3962389781796056, -0.4325106963309935, -0.43141186243810653, -0.4292076174658281, -0.4403822782836634, -0.4331103506445159, -0.4509170316068128, -0.46353492990212286, -0.4739952123444223]",True,0.8000,0.6000,0.5000,0.1000,0.2000,0.0100,2.0000
8,go,Hit,1,0.9200,"[0.0, -0.03872465467561485, -0.04573682227414712, -0.060637949481641265, -0.06532936594625374, -0.050277252107749235, -0.07452057694237016, -0.0684031345932451, -0.08581606978032942, -0.060428676942361786, -0.018770383659449677, -0.03552642340789657, -0.06769503790052726, -0.056028376316501594, -0.05685849331565368, -0.09483797672647598, -0.08035535216768794, -0.0385719983531721, -0.03728980058000651, -0.018372048529350482, -0.02687065578031573, -0.008525222938503552, 0.04286435680128406, 0.06993749041865895, 0.08013804315544353, 0.08765689037142564, 0.14333333646712113, 0.16855566834376345, 0.18162195239673581, 0.19006633080556168, 0.18887280810303503, 0.20432423647586806, 0.221714787451748, 0.20901380984758122, 0.2445623728095728, 0.22751020348692033, 0.21337388172952246, 0.21323391186084695, 0.21493091652490723, 0.24537311344322346, 0.2800471169556938, 0.2711203575561557, 0.2781309769294316, 0.2864105946736387, 0.2851027516639002, 0.2801623685718503, 0.30011634849421853, 0.3448142498042771, 0.33349219884436615, 0.3391438107853444, 0.37133714910720583, 0.36218240515372263, 0.37547497654344136, 0.3855648590865594, 0.3618821268871709, 0.38518427508122294, 0.3655663911602425, 0.3509128601734168, 0.38743980055936544, 0.39616121839235946, 0.4030660653395595, 0.3910190573245756, 0.4065191640224134, 0.37566505387754723, 0.3997250225349834, 0.4244174899454415, 0.3942777105794948, 0.39618402626678684, 0.3889507376504352, 0.40180678204412373, 0.40092592629054147, 0.4155852387360774, 0.42071666843864536, 0.3968008600141276, 0.38791413450218976, 0.3973162822075001, 0.38808514783040643, 0.3805670007261134, 0.4102873486762945, 0.41932088885894125, 0.42401881781177814, 0.4721398664765146, 0.5195957847696571]",False,0.8000,0.6000,0.5000,0.1000,0.2000,0.0100,2.0000
9,go,Hit,1,0.5100,"[0.0, 0.021570682690790467, 0.05529476311609783, 0.04827407610718533, 0.03074982863002407, 0.04045462441416343, 0.06581417907040744, 0.09150757203141692, 0.10624015208637964, 0.13662325444591647, 0.1367182360075163, 0.13130781085521653, 0.15705593032548487, 0.17378733686842326, 0.20773944046198745, 0.208715854480344, 0.22136625450017985, 0.2503396285797931, 0.28026843498161547, 0.27692517203271705, 0.32239717225757547, 0.3148131285104597, 0.31480717755600046, 0.32312754887544615, 0.3698618084663787, 0.3443142323161096, 0.31298688015602605, 0.32549303525991236, 0.32696423012696885, 0.34477513706873636, 0.3616232869965515, 0.36233071412878537, 0.36197769022521403, 0.41439290936756373, 0.45710995739866706, 0.4697656239203717, 0.47700902350292257, 0.4601587582552867, 0.49253839920152187, 0.4988109828190393, 0.4910323367384782, 0.5000651308000124]",False,0.8000,0.6000,0.5000,0.1000,0.2000,0.0100,2.0000
10,nogo,Correct Rejection,0,2.0000,"[0.0, -0.006012568453802903, -0.03879922583866936, 0.0010659103654308902, -0.023663260172403475, -0.029143670041846884, -0.041323524057503905, -0.07985861593523189, -0.120032667258476, -0.1529986649007318, -0.15335882387583316, -0.18104800221736964, -0.1850224683798968, -0.1769302622178263, -0.18680378563374905, -0.19045962538939926, -0.1821494923269557, -0.18146200414047317, -0.17838478868896002, -0.19397923858462598, -0.18488415536130123, -0.16718811796333902, -0.17161354615483265, -0.22011889143001845, -0.1915686005659833, -0.20986402893272474, -0.22700791700109085, -0.25969555227742924, -0.24573197771361183, -0.2406362858061668, -0.2609648045942091, -0.2346714768541337, -0.22023503555454382, -0.1800813481803976, -0.21306841997968942, -0.24157257832631027, -0.24882796496490106, -0.25322024669673177, -0.2771829264547961, -0.2783908596896208, -0.2935100538370669, -0.2795051734324582, -0.3225550471195993, -0.31428336724607453, -0.3311231269440219, -0.3265708448510362, -0.322974163746163, -0.3362290977347376, -0.3542714914986632, -0.39332758094875486, -0.41324404866018355, -0.4278607898266348, -0.43232919075642484, -0.4049710266863841, -0.3989302476400215, -0.4067544768025761, -0.42946772311266596, -0.41495496901096496, -0.422362900831365, -0.4363826369640069, -0.45591303629241897, -0.5185814697731237, -0.5254131324636571, -0.5363318699772371, -0.527009425739185, -0.5170367610257163, -0.5416685084675033, -0.5346659268060291, -0.5506094062836175, -0.5457387444034257, -0.5411389186762255, -0.5292626514775858, -0.49952258793683163, -0.5002361714156165, -0.5239822218691444, -0.5461649007476785, -0.558947147540928, -0.5803788800511205, -0.5271571087050546, -0.5336898777736536, -0.5477420659784501, -0.5774069076444254, -0.5581173351792054, -0.5472475940765189, -0.5810858569805548, -0.5693027478142698, -0.5419831089535538, -0.5469932339445339, -0.5691900691948242, -0.5633049224813039, -0.591889511518182, -0.6302916700250604, -0.6430780218164758, -0.6335672979280776, -0.6291133696947546, -0.6201233622757603, -0.6560928911751502, -0.6252228583260291, -0.6679341711392842, -0.6984776163026154, -0.7245814046552828, -0.7179469902774964, -0.7030986440936273, -0.6922107822994115, -0.6902954740304542, -0.6834101391116749, -0.686211482331675, -0.6959559062534584, -0.6912557467696611, -0.7233706358207991, -0.7398197382505026, -0.7486324620335686, -0.7760738140367321, -0.7545911934075351, -0.7575445282782761, -0.767058808700726, -0.7731970373895921, -0.779847504508445, -0.7697009723786077, -0.7996280219244283, -0.7921529374477111, -0.7680278996928022, -0.7828063301058868, -0.8116097965446013, -0.8409032550223446, -0.8539394542090424, -0.8679115486954907, -0.8754319705581312, -0.8685767112432561, -0.8636463676196204, -0.8599701908175542, -0.8947933071708011, -0.8521344244401213, -0.8803783086406556, -0.8708098524426275, -0.8429530241541566, -0.8758525859648573, -0.9067636856397268, -0.9280156987725041, -0.9567614346791508, -0.9606777157509605, -0.9509298186818975, -0.974837735550428, -0.9809614872274219, -0.9981240324983234, -0.9590049790375277, -0.9631641547488403, -0.9790671540399973, -0.952431908783792, -0.9653620351254076, -0.9724893400094891, -0.9607309709709844, -0.9245254862009004, -0.9224894399663981, -0.9393618341220774, -0.9347062302648017, -0.9659472023319622, -0.9677086781835397, -0.9840378224099725, -0.9985880777049424, -0.9981492958757384, -1.0109819359731946, -1.024163116927387, -1.0333885933463096, -1.0370761552867949, -1.0633403185828652, -1.0818129955039644, -1.10900028854508, -1.1152234538607073, -1.116335542440826, -1.103228946494097, -1.111166237081205, -1.0646063208343781, -1.0375229502569534, -1.0522148789749561, -1.0568066198891248, -1.0535908299553758, -1.0681503861926467, -1.0582364993035867, -1.05614312766162, -1.0711205491756637, -1.053960227739828, -1.076554087491468, -1.1070236892350591, -1.1121968712819306, -1.0960823125982726, -1.1084361238979261, -1.0977212861898866, -1.0952467787242772, -1.106027229177164, -1.1260425868947528]",True,0.8000,0.6000,0.5000,0.1000,0.2000,0.0100,2.0000
11,go,Hit,1,0.5900,"[0.0, 0.035584263782748995, 0.053960860010650716, 0.05543304221565853, 0.0785984853086184, 0.09238846143136681, 0.09586391946321858, 0.12781664215408098, 0.12744087470346924, 0.15321475246887925, 0.14886714559009803, 0.16590451143757734, 0.17801594948397426, 0.17558491015845726, 0.18739015302412937, 0.19783264610864942, 0.17312832554151783, 0.1788530887405743, 0.1859168104318881, 0.2133433390490015, 0.21922129528335552, 0.2220601236792544, 0.21589465530642793, 0.24895110832928338, 0.26124897329362684, 0.26310329647562825, 0.24433726162898375, 0.2781449959788583, 0.28071718227783765, 0.30833136971129854, 0.29604613131363927, 0.3287083061226599, 0.33742459781451245, 0.3586125593911945, 0.3636943286422639, 0.37644075920073744, 0.3546994370527822, 0.35722239102375547, 0.3614648719101245, 0.38585281177865405, 0.40575744563397154, 0.396245605303186, 0.4160113482533071, 0.438299701457222, 0.46310395099902, 0.44219564135295975, 0.45306051185994883, 0.4617327330798984, 0.49602415187818394, 0.5581044167507455]",False,0.8000,0.6000,0.5000,0.1000,0.2000,0.0100,2.0000
12,go,Hit,1,1.1900,"[0.0, 0.03811616682962166, 0.0513931502512546, 0.04757167294601175, 0.08328035609192388, 0.0772768102515031, 0.07156079240960359, 0.07657425963635837, 0.07126327370120072, 0.05313093366312488, 0.05841253914649357, 0.05910215547391803, 0.06102609814537421, 0.037148449833951026, 0.03772175968734384, 0.08609488466255735, 0.07144262682901954, 0.07064233168538733, 0.07554434078975585, 0.08209976040291585, 0.10006158923616246, 0.11754272952300701, 0.13368860580528946, 0.14791913769296078, 0.13886779170842076, 0.1448384014422605, 0.18626888117941368, 0.20323181276070548, 0.24557463826542683, 0.2713147610759401, 0.2834913008961344, 0.3223567253225927, 0.32179045435536174, 0.3053921776661181, 0.30880645149120645, 0.3141968833641934, 0.2981250507224054, 0.26129497303771637, 0.28722846757296533, 0.298322625503587, 0.3071564670055696, 0.3200699689734309, 0.2967543838740142, 0.2849776570435771, 0.26651729225677756, 0.29617994137548354, 0.3183314948031994, 0.32732822809356327, 0.30172317406778093, 0.292264097583769, 0.2687278525959433, 0.2692145703423176, 0.2759607484923165, 0.2917542838762898, 0.29710913092298447, 0.27147896804852256, 0.22771484967383407, 0.20082216995930774, 0.20221914542201722, 0.19473108269468622, 0.20461347398980717, 0.20589444442976865, 0.1579201131374899, 0.11969523185839093, 0.09754817201686652, 0.09576761082501264, 0.12333864225244691, 0.1284920652751168, 0.16566486197132252, 0.14249769924848582, 0.12870338912457122, 0.11527522433538781, 0.11753363019754431, 0.1232266055156871, 0.11916092811356012, 0.1075662051676342, 0.13870167194188593, 0.15976004755216675, 0.1725345432029743, 0.21161955877476174, 0.2661850935163593, 0.2705091746504404, 0.26599109723410785, 0.26440515712092344, 0.24999185440427824, 0.2534424999182228, 0.2550778038473573, 0.2866672795295637, 0.2949326436597162, 0.2596270755294262, 0.2580555790414339, 0.26724228509473724, 0.29282326436438466, 0.31984086822309943, 0.32626348908355396, 0.3410957696942485, 0.3560965645785619, 0.38033679044322355, 0.36723445026290763, 0.36227284176529323, 0.3841227864347089, 0.4147380696262415, 0.40805152555484275, 0.4100011508629806, 0.4433243401118684, 0.4882669904372213, 0.46844059526779, 0.45446144179033304, 0.47425860845483414, 0.5092286903573527]",False,0.8000,0.6000,0.5000,0.1000,0.2000,0.0100,2.0000
13,go,Hit,1,1.4100,"[0.0, 0.005242790213505613, -0.004595349165627909, -0.013105280523830254, -0.007879995800215972, -0.003658013808052603, -0.014799760026056003, -0.03286706543495492, -0.03189053860534269, -0.022880157509684387, -0.04986767131366207, -0.04199026845255695, 0.0035356755141593005, 0.009797741454876996, -0.003421816100850225, 0.006950566772124158, 0.0330881787716552, 0.04000919493808283, 0.04243667728493391, 0.06324632880478892, 0.04148767837294185, 0.06589131821978746, 0.042105670349055484, 0.04196351773459626, 0.011479966707391966, 0.004382321379098173, -0.007933800455552203, 0.0003322602625389307, -0.001188432493215855, 0.010869707930039309, -0.018768854971241367, -0.024141523148832646, -0.05400021878074036, -0.04791409141993229, -0.03616646891340085, -0.029546530295225207, -0.014634332926200103, -0.0012696408161587125, 0.020890741996133437, 0.020903757870823637, 0.030455907445719202, 0.07796405620833535, 0.06161518723344558, 0.08020801240043324, 0.06195384295001498, 0.0836950231703235, 0.06767915001807143, 0.05925218019251029, 0.07940430567636061, 0.07111203006568094, 0.08465878604523766, 0.0715793745033668, 0.09443623110320631, 0.105509575929967, 0.10829775976403615, 0.1283602757803388, 0.1355095247883241, 0.10476062630516741, 0.1318890931847954, 0.11609042764604702, 0.1376326863031323, 0.12927913732170657, 0.13483149568177813, 0.1692315665497558, 0.14809483520898686, 0.16869712936531198, 0.18302083789469378, 0.154773330007252, 0.11767330933533629, 0.11769415150085076, 0.11422854207178725, 0.11291505350930771, 0.10262236575555572, 0.09411581737373254, 0.10239309765985544, 0.1292013284889746, 0.15468521919889083, 0.16925322406444546, 0.1638044644459611, 0.17305043030684109, 0.156235738178029, 0.18046014359411486, 0.17611307981538238, 0.17751525319581604, 0.18016481253703892, 0.18841364263097254, 0.17680244363966527, 0.19649918142051226, 0.19026988647997983, 0.21497215640380446, 0.21154034208153671, 0.26037115603170546, 0.25391463215282883, 0.28020209745632124, 0.2853097230097767, 0.259921134376588, 0.31571475944469624, 0.3295824687078345, 0.3702625085003705, 0.35671607726918086, 0.34685531942688935, 0.38479695213042475, 0.368851166365305, 0.3805268107104194, 0.39853477403910414, 0.39501606478949614, 0.4044104949080315, 0.3974607205957854, 0.38917638555053824, 0.4063126019107871, 0.38048121924975614, 0.4002559079566373, 0.4306573718306774, 0.47005858343949003, 0.44808155451842707, 0.4638750945917891, 0.4901712863740437, 0.4952115688471214, 0.48885099183207126, 0.4797747606438355, 0.45929401360695016, 0.4551535150901918, 0.4471924722288147, 0.42297466395448374, 0.44348213068159925, 0.4497818324933673, 0.47778809112144804, 0.4909668728552668, 0.48347094620370684, 0.4472443653557858, 0.47095094386936354, 0.5106422250742193]",False,0.8000,0.6000,0.5000,0.1000,0.2000,0.0100,2.0000
14,nogo,Correct Rejection,0,2.0000,"[0.0, -0.001910374123599643, -0.02143280209545982, -0.027896009101572798, -0.05058355271072355, -0.08634682712068575, -0.07196592759391336, -0.1075496435277123, -0.13677373965855094, -0.13956398170026887, -0.13090107193862416, -0.13719853421813114, -0.13296090788733694, -0.136391467758775, -0.15461746160548168, -0.19930628660452435, -0.22840146391960803, -0.22162654320297062, -0.2076624215629127, -0.2503457610412891, -0.24474802681973812, -0.28767825801544655, -0.2896001024651585, -0.2861264752910335, -0.27851120603435464, -0.2731513502521363, -0.2799764640514872, -0.28199637624476065, -0.28711211539223375, -0.2589596905905608, -0.24381629974042196, -0.22693186568659268, -0.2216262077928759, -0.21437165995177068, -0.23847919508035775, -0.2653430251683166, -0.3017503676871072, -0.3079247538111048, -0.30310812974603774, -0.2800097162882293, -0.2563436946787969, -0.24883651597986722, -0.27867057458300254, -0.3085953133356837, -0.30315422731845215, -0.29107582782177094, -0.28896413278983907, -0.30883978993814243, -0.3155038634642125, -0.3146080015016231, -0.3344214738384272, -0.3552913218832183, -0.3436192348058163, -0.32842201540044924, -0.3257796206176664, -0.35200485156896055, -0.32617514358969946, -0.3331571451895514, -0.33024134263457994, -0.3113172156119967, -0.3277621838343419, -0.34936715054831047, -0.36526935384613196, -0.3562879802446352, -0.3542403779205111, -0.3589592962705976, -0.33997142957428406, -0.35236580966217634, -0.36623078902787826, -0.3963174994464038, -0.36641886967474196, -0.372545125208875, -0.3957341103783455, -0.41895866492844797, -0.42437725576485597, -0.43947114117801434, -0.4417985780867003, -0.4759381539355336, -0.48531780495953486, -0.4714125342813705, -0.49440793883402273, -0.5153535547774196, -0.5274597738309141, -0.5360979930227913, -0.5692991560139171, -0.546767055941149, -0.5662201832951252, -0.5708526022893633, -0.5939310178492693, -0.5999717293274102, -0.5985073327096875, -0.6162483668734409, -0.6079866089851322, -0.6463205827722569, -0.6274339300895079, -0.6219651069611484, -0.6658325630676962, -0.6395364635728171, -0.6562160198987416, -0.6627684515085955, -0.635442331919526, -0.6623524410499134, -0.6874602710701623, -0.7096867261258237, -0.7225404621079529, -0.7387172602800031, -0.752334986321646, -0.7692602629530769, -0.7548565520467923, -0.7645043102725699, -0.7765052161550207, -0.7955052386144855, -0.7917630497451944, -0.7834246478836062, -0.7747889704024831, -0.7681751430704703, -0.7463149439562778, -0.7647891417227634, -0.7537884151320728, -0.7750633808516258, -0.8029538649303132, -0.8161536504386778, -0.8184058814569386, -0.8060264633334119, -0.791221688086803, -0.7554249828913447, -0.759675581304565, -0.7590008903079251, -0.7585364952704939, -0.738194471346035, -0.7278062159045006, -0.7250130712962344, -0.7525580727967097, -0.745003874484147, -0.7454582385890531, -0.7504576500617831, -0.7625244545053483, -0.7369993308055584, -0.7448947407540208, -0.7367098843670675, -0.7211189191842985, -0.7238162855493744, -0.7162849766180746, -0.7462964657719208, -0.7650773746861497, -0.8021597179293912, -0.7998906993323166, -0.8158107172318263, -0.813469943334129, -0.8074037505372275, -0.807893830204608, -0.8261818518361316, -0.8222158587604445, -0.8602932913546126, -0.8667578644635604, -0.8860957777540919, -0.8897848389497638, -0.8757211298719783, -0.8478628597305866, -0.8738227200117482, -0.8858461116314845, -0.8889261316297626, -0.8816046301135401, -0.8529552734524173, -0.8522428128349585, -0.8271936588495659, -0.8022400319486868, -0.7612176400472072, -0.746829799338712, -0.7307693478906774, -0.7456268246123975, -0.7418593660824087, -0.7539045381534162, -0.7951210235379135, -0.7995495591976477, -0.8024861851295154, -0.799211057655819, -0.8064752337259148, -0.8441109786859213, -0.8432323449893119, -0.817221638734696, -0.7870090065657055, -0.7648920362767658, -0.7920041727589501, -0.7977459953165572, -0.7927342060723779, -0.7976219158870738, -0.7944959275482465, -0.8072785932226636, -0.8560035557128656, -0.8647452059638485]",True,0.8000,0.6000,0.5000,0.1000,0.2000,0.0100,2.0000
15,go,Hit,1,0.6300,"[0.0, 0.004683938539147197, 0.03284199235216662, 0.07625829656192987, 0.08544898690031219, 0.0702537028729929, 0.05045460960126262, 0.04955806559998233, 0.05107362759915636, 0.099628041078657, 0.1184376555123007, 0.1284084825088649, 0.13944065104451847, 0.13426777273758536, 0.1511840356849752, 0.16299945359772733, 0.19549366086117562, 0.18013347442524066, 0.20004794919513552, 0.23504444309302036, 0.22547763705620605, 0.21869008847149785, 0.22730096780928893, 0.23840210764535763, 0.1908452652006725, 0.1745467847901444, 0.19670856745809845, 0.2287597300465133, 0.20884294291708974, 0.220575856131909, 0.24268044420293094, 0.2258483671369616, 0.22198658971040713, 0.24615871645476758, 0.23692740290293476, 0.26820545078577274, 0.2725475243250861, 0.2703670299033269, 0.2689196653068107, 0.271119964066098, 0.284281754009413, 0.31329310136610783, 0.32005361894939094, 0.32237157518801113, 0.3048430401110389, 0.3137716792518902, 0.35126107801625217, 0.3532746454016845, 0.3708953864480927, 0.39938991913220473, 0.4248702716956391, 0.4375722591587514, 0.4661743463562604, 0.5112487860202309]",False,0.8000,0.6000,0.5000,0.1000,0.2000,0.0100,2.0000
16,go,Hit,1,0.8000,"[0.0, 0.010608673238384641, 0.022679655898080783, 0.013991908715443504, 0.04802471469618688, 0.01688039865101685, 0.02673797915785013, 4.219022128471722e-05, 0.028321826456539766, 0.016307292340593457, 0.04485313290116373, 0.04651192829649807, 0.06366359012767453, 0.08042346173378875, 0.09451541087506593, 0.10249932485756183, 0.09481260150096997, 0.08138660234311414, 0.09116317826105666, 0.14232637820742505, 0.15380772083280508, 0.15476043956969643, 0.18487763715397343, 0.14487088171451112, 0.1820329659369651, 0.1978433911078406, 0.21523970058266914, 0.19613074409091294, 0.18563847892877539, 0.20992464526395352, 0.2235476135136911, 0.27492097096759127, 0.3044087587445147, 0.29945139568727847, 0.29801885195325, 0.28783002136103814, 0.3025077619110777, 0.289456535913984, 0.3304252954406267, 0.3304538903256922, 0.33525990262509464, 0.33801748947001703, 0.3474179603551882, 0.3176243585922077, 0.30895514710508104, 0.31984307410024393, 0.34502814892289924, 0.32853994088623384, 0.3569222632524132, 0.3631991640340839, 0.4179491065666491, 0.3940368260527642, 0.39903001768205126, 0.4091759386553686, 0.4192031672883575, 0.4248963159059146, 0.4422897952846819, 0.4220638404266831, 0.45281310848761325, 0.44457710490340857, 0.4375879852876516, 0.4127358021625356, 0.4373719929927256, 0.45809578897447206, 0.47105836642508697, 0.44655677954783607, 0.45954688094302637, 0.46413210609427263, 0.48171001832353466, 0.48824193172308633, 0.5171383108123438]",False,0.8000,0.6000,0.5000,0.1000,0.2000,0.0100,2.0000
17,go,Hit,1,0.5200,"[0.0, 0.015230216292535704, 0.00247379791821741, 0.028647283099248994, 0.046772521427097945, 0.05948581574003191, 0.057409257582225676, 0.07537523395194032, 0.11181985167103334, 0.12765757183691578, 0.13994441635768232, 0.15885264760002887, 0.14326409147084646, 0.15831940092992222, 0.1259819681838562, 0.15611476205141578, 0.1596702913371347, 0.16222814038953076, 0.21237246634538437, 0.24798645017635887, 0.2761474667085479, 0.26748946647234517, 0.33787657857454917, 0.3262355207746065, 0.3380086859501686, 0.3404508246738838, 0.37557253486148756, 0.3639412381452373, 0.3689176334326409, 0.3754649270084799, 0.349440987175897, 0.3657930899462586, 0.3814169337916272, 0.4122134809533499, 0.4149865151202151, 0.4147336288583476, 0.39514641764420844, 0.42680040094260974, 0.44500588210819303, 0.4399747142604985, 0.4531639745677454, 0.48202323260529323, 0.5219514606232244]",False,0.8000,0.6000,0.5000,0.1000,0.2000,0.0100,2.0000
18,go,Hit,1,0.3800,"[0.0, 0.04213424886294119, 0.06354038299837939, 0.07412851309628035, 0.10615831976017098, 0.11784163019472525, 0.11916046847202319, 0.12803187055697443, 0.14191851964352642, 0.15518863860496623, 0.17659853086156174, 0.19077214895879124, 0.2279776697262571, 0.25515153573422233, 0.2494995972168974, 0.29837595899991853, 0.30115831541539045, 0.3351921020064602, 0.34321851090389854, 0.362156788977193, 0.3664527587191761, 0.40417892181196036, 0.3895167764307833, 0.38774457977010324, 0.4146395773789402, 0.4300673620984098, 0.470931371488504, 0.4837871119550141, 0.5165000863708458]",False,0.8000,0.6000,0.5000,0.1000,0.2000,0.0100,2.0000
19,go,Hit,1,0.8700,"[0.0, 0.007709404377786768, -0.018279030201695096, 0.0056565964662101745, 0.04023293616029509, 0.07949241479607899, 0.08793029981312618, 0.08342715075882606, 0.11151494714337992, 0.15178681433039487, 0.16633164851335627, 0.13519175148737167, 0.18109535996027193, 0.22638381681498462, 0.19480394009223864, 0.187216862035995, 0.19291930336352403, 0.17573011787949602, 0.1935380503605608, 0.21760579515105774, 0.2498993529381113, 0.2778805876283934, 0.2617024413951258, 0.2701790877793623, 0.28055387272535054, 0.27102158056530207, 0.2614188341716823, 0.2921457220734253, 0.3038249190009506, 0.31364146222464445, 0.30796460682748444, 0.31307952995835364, 0.3272200513987735, 0.30614867923078315, 0.3102752780887692, 0.35262981506330826, 0.3425536512782013, 0.30765183281973146, 0.2992126629004934, 0.25993173678190074, 0.2762190583458943, 0.25182031425723583, 0.3057627867759709, 0.31627944418351217, 0.30441242809833247, 0.34129071701398045, 0.3660723403276814, 0.3796464402376204, 0.37906584900525025, 0.37804035727536456, 0.39510345526983953, 0.38440970729763757, 0.4059954389191361, 0.42329560781336045, 0.4120036127515239, 0.39809349220780027, 0.3817878970424084, 0.3459580887609827, 0.3321820180524195, 0.3599892651119491, 0.3502257093089965, 0.405533308335465, 0.40850423140734593, 0.41482482087595934, 0.43709218911897363, 0.4217348249076184, 0.418486311032607, 0.414546375631451, 0.43006197006723434, 0.41198654497058623, 0.4512851003857302, 0.48657095411331325, 0.4633639433696446, 0.4838325308126352, 0.46772941093610015, 0.44886447126105034, 0.4901407010393695, 0.5005336211829092]",False,0.8000,0.6000,0.5000,0.1000,0.2000,0.0100,2.0000
20,go,Hit,1,0.5500,"[0.0, -0.0482417280192178, -0.021942316208447856, -0.0009121526273482942, 0.005786346352105035, 0.00978579905793773, 0.05360875548744204, 0.06068075221551571, 0.1252022512922576, 0.11404654416454899, 0.14128566950091023, 0.16608712444839965, 0.19187823916561136, 0.21237303378317612, 0.18147059598668214, 0.20745076034436447, 0.2197525727364122, 0.19081842870362067, 0.216347585473554, 0.22273962583594442, 0.23622638794617812, 0.2682994430719134, 0.2673860125691915, 0.28353002805428534, 0.2808236276447076, 0.2740370191834854, 0.279412215755713, 0.34097121411434356, 0.3437586250934679, 0.323110454249161, 0.34453680255472763, 0.36398045839800625, 0.35158748669052453, 0.34863969079371365, 0.3688773261117979, 0.3833027218059274, 0.365051490664849, 0.4050064957001117, 0.45365096543487154, 0.4323751517898559, 0.43523330878571714, 0.4857950523704493, 0.4962621479358694, 0.47673125319105125, 0.4915687118198512, 0.5264284418581686]",False,0.8000,0.6000,0.5000,0.1000,0.2000,0.0100,2.0000
21,go,Hit,1,0.6000,"[0.0, -0.008874371488316404, 0.011893783928999844, -0.01950698291728119, 0.0017066797469437907, 0.00903738593494358, 0.03016931302469922, 0.044875318319194626, 0.09037458373660015, 0.07905285752868572, 0.111166392031775, 0.12391182429020377, 0.11001900785194868, 0.1193174145423545, 0.16481047776363045, 0.17315937629657843, 0.16160660300631383, 0.1797569936110987, 0.1577431933491601, 0.14799858187657017, 0.17343384230546896, 0.2012899521495261, 0.25996850057086623, 0.2752652633981186, 0.28473946658945515, 0.28546374745201947, 0.30744351640493356, 0.3006656830952183, 0.33831588034695065, 0.32480947734720544, 0.362359141322766, 0.34746277047632795, 0.3820425748643768, 0.37416559655144216, 0.34835721158019556, 0.36686432238798977, 0.3817534488803798, 0.38712051565660915, 0.4250418138658887, 0.40699842772336187, 0.4444934599470666, 0.43368250078498083, 0.4214355336221064, 0.391787648420433, 0.37855965665451513, 0.3768649554441762, 0.3925778713587926, 0.42375354420077344, 0.4782129447278025, 0.4836197217584563, 0.5010338217259532]",False,0.8000,0.6000,0.5000,0.1000,0.2000,0.0100,2.0000
22,go,Hit,1,0.8800,"[0.0, -0.01298944388111875, -0.012531087119235503, -0.01853894998361924, -0.003985113410602644, 0.017948564773345183, 0.007723437163265189, 0.021985867865388836, 0.06354596277271465, 0.05354777095826648, 0.03537077185155605, 0.04087068379047922, 0.07019359290899656, 0.07782403248285116, 0.05745319911717137, 0.058319676997650616, 0.06690317995826378, 0.0550906284488286, 0.07232821039043498, 0.056880692540394434, 0.07006566217109039, 0.09908428945703623, 0.08821827940272085, 0.10351033630165088, 0.08981539375654264, 0.07790481570738897, 0.08349383005007469, 0.09754256536818234, 0.11134331119119048, 0.0936963356177453, 0.08976630847275424, 0.12085714890095242, 0.1036482585438544, 0.1352501201130157, 0.17900753004817305, 0.1880392816379515, 0.19041878238854723, 0.18268873420094026, 0.20750585278951286, 0.21413980819787184, 0.22721434483854377, 0.2392623396422801, 0.23304396007467207, 0.23938663761757495, 0.23283461272041425, 0.2654357513577816, 0.2816893902876504, 0.26195955573405655, 0.24790524943896441, 0.23674490008704346, 0.2233831707786762, 0.23199050399093907, 0.2143353274449988, 0.23868930740456523, 0.243238133060964, 0.256312030298597, 0.24770973729152995, 0.25869602580253803, 0.23900461135103937, 0.26432802430431934, 0.26915673489015374, 0.31433646529068354, 0.32038128351422523, 0.3445654131117184, 0.3491912925366239, 0.3742758467164338, 0.34828302146981527, 0.37334724972637734, 0.36670581624206616, 0.3597019120697749, 0.3698519051302223, 0.42724405131202725, 0.458475274816447, 0.45071011162020186, 0.4976170335124505, 0.48114933044982455, 0.49683628581801065, 0.4856864536729355, 0.5288744428386122]",False,0.8000,0.6000,0.5000,0.1000,0.2000,0.0100,2.0000
23,go,Hit,1,0.5500,"[0.0, 0.018096138301593817, 0.03088899050953885, 0.05280724717450172, 0.07058636364254123, 0.10873208531866113, 0.1305956822437519, 0.13551177447840676, 0.1620364264560135, 0.18876125388681952, 0.22132278871375943, 0.25513662035561296, 0.254546300090215, 0.2630145325428353, 0.26066872016629494, 0.2719270791745275, 0.25445965970018003, 0.2663038029770062, 0.2484130816429812, 0.28115738481179453, 0.3145019338419924, 0.3143394165426464, 0.29673960949674916, 0.319041974996632, 0.2911675706549227, 0.23871413225939822, 0.2670338158108782, 0.29161108789857915, 0.2965398349614529, 0.2659048526835653, 0.23804985140067653, 0.2534916228759891, 0.3125496122527631, 0.3288337650988882, 0.34562505484699857, 0.31043930130715924, 0.31922860160779293, 0.3209810151462834, 0.33030370263494363, 0.3538527783703822, 0.3698370032455757, 0.3973060969444136, 0.45370512383929823, 0.4778192120798297, 0.4795774316421474, 0.5195078056110588]",False,0.8000,0.6000,0.5000,0.1000,0.2000,0.0100,2.0000
24,go,Hit,1,0.5700,"[0.0, 0.015238282090061193, -0.0007821450512693305, 0.012000268045953406, 0.04580131874816547, 0.03289268139175547, 0.06360699579140164, 0.08580509416118279, 0.09008164044427029, 0.1141697159397352, 0.12941002756800005, 0.1663598091822553, 0.15511876357393056, 0.1794071032049431, 0.16720784100506414, 0.20113559664852204, 0.1910596828330974, 0.17483281343403867, 0.17078199573643515, 0.19546395572894515, 0.20224494325288656, 0.2254354266522126, 0.2377804721408989, 0.21752574844899025, 0.23270981742834093, 0.22376894245501286, 0.22836755331482878, 0.22120165195449623, 0.22185146280151552, 0.2529730664083534, 0.2682808617001258, 0.24217600675409393, 0.26731023257493103, 0.288717186482886, 0.31641722194935246, 0.31111465815699024, 0.30418434069027134, 0.352375833783581, 0.3264065997199477, 0.32426145234316356, 0.3355948120688922, 0.3425365245155368, 0.40404679414856337, 0.4103038379626777, 0.43109654353271987, 0.45825262574856807, 0.46032993097846286, 0.5138546121339937]",False,0.8000,0.6000,0.5000,0.1000,0.2000,0.0100,2.0000
25,go,Hit,1,0.5800,"[0.0, 0.0032588235763723076, 0.03501088471252776, 0.021887514722726882, 0.039572079555043424, 0.05412258096324558, 0.08333144848326267, 0.07460073454384311, 0.10504525276091578, 0.08302576621822047, 0.07858544026324576, 0.06043168886711736, 0.10841860274306003, 0.09702644501083602, 0.09637000445943991, 0.14264274842955155, 0.14280324782320683, 0.14169839375939386, 0.10083311060340672, 0.13146701080126075, 0.11927659322560197, 0.12042167728744946, 0.14828680579473857, 0.16973912852395817, 0.18750380380479847, 0.1825611803011908, 0.20655883918359758, 0.19319386617917159, 0.19162923699822854, 0.19662242372098568, 0.20140322779401398, 0.22064520944028057, 0.20429636859498856, 0.18179335446692466, 0.2149197612515319, 0.20576007401618526, 0.22024871910792945, 0.27302899605837744, 0.28967618943891105, 0.3097642706032731, 0.3370367212866455, 0.36277174287434866, 0.3979494965835616, 0.42308146512837425, 0.4497013432397774, 0.458540695483123, 0.47426901380035213, 0.4929852959610394, 0.5010181676796124]",False,0.8000,0.6000,0.5000,0.1000,0.2000,0.0100,2.0000
26,go,Hit,1,0.5400,"[0.0, 0.020229451822924575, 0.04233195738601761, -0.016334329591884543, -0.019582553025679655, -0.006063933924070734, 0.014429872828299831, 0.02693273259360115, 0.03476329333413654, 0.04797356400707879, 0.06001949064113144, 0.10437325601226713, 0.10456995323071659, 0.10762625990312785, 0.11001169992803213, 0.13352858306819126, 0.13228923962673803, 0.1357171750542209, 0.149784509377287, 0.1325398664170845, 0.1547647489014664, 0.19710613079789135, 0.22487768919158463, 0.22499884360476444, 0.23893664327795291, 0.25803060489044205, 0.2676748802354734, 0.29292698473327206, 0.3071888109386973, 0.31007659492233797, 0.3130546953798111, 0.27739887001676833, 0.2739069810116626, 0.281356278219071, 0.32117608773179074, 0.33991218212541835, 0.36298249770252816, 0.4038178114508237, 0.4592290402514104, 0.46861450324101056, 0.4774781385132, 0.4950330781924074, 0.4703048996239105, 0.4909418993397685, 0.5064403610961388]",False,0.8000,0.6000,0.5000,0.1000,0.2000,0.0100,2.0000
27,go,Hit,1,0.6500,"[0.0, 0.03276783278292307, 0.04284721342362679, 0.03478453180776997, 0.04240726077703449, 0.05718153407281566, 0.06565146458170504, 0.08689816089789498, 0.08150528663154173, 0.093589948088976, 0.11333629229076725, 0.10121715487095329, 0.08868004658856715, 0.07571799807005498, 0.08423961451964518, 0.09467715832056159, 0.0957753391135057, 0.13243718611453237, 0.12228037534876332, 0.13075278313718322, 0.14562099664327643, 0.18323877074226227, 0.2085803961770877, 0.22910967357586187, 0.26391189254713154, 0.2760261307172158, 0.28082346661944124, 0.2854321338067071, 0.30216042275282895, 0.26380920353829684, 0.27912356549864636, 0.2948860403665869, 0.27532507768585246, 0.280820069702489, 0.28559913799065323, 0.2898240362673874, 0.3007227484530928, 0.30368300570618284, 0.2678555273457877, 0.2806880914073235, 0.28967196817478563, 0.2905583429261159, 0.3081962629785766, 0.30777395983572575, 0.3102647427675843, 0.33288584482228817, 0.3554645752625837, 0.40672573421625746, 0.41267352879279023, 0.4536221458947123, 0.4665136598147841, 0.4551927358473648, 0.447973517760905, 0.4673853065196166, 0.49087561411430475, 0.5279694959850711]",False,0.8000,0.6000,0.5000,0.1000,0.2000,0.0100,2.0000
28,go,Hit,1,0.9400,"[0.0, 0.014108565394014474, 0.03165031851536411, 0.04865296067279684, 0.04865796939232386, 0.0477837269884795, 0.09982614227260572, 0.12072477002574081, 0.12787991805148893, 0.14458639167561996, 0.13583047618858457, 0.13591557555492823, 0.11736281247573883, 0.10547121083795162, 0.1480155504757546, 0.13034165954734506, 0.12925714505527827, 0.11699028015947979, 0.12424461841893295, 0.12485330663516905, 0.14354023015752787, 0.15799202715567498, 0.14868940189009486, 0.13539258615465338, 0.1288853850665198, 0.11532179729566785, 0.09329127773873634, 0.10039809581582396, 0.12160605576032406, 0.1550850949520637, 0.16835368625682104, 0.16444092864843243, 0.1466310378268616, 0.1329205575853346, 0.16875526833727722, 0.15020955637360567, 0.15393277904611744, 0.16439672795793325, 0.16148837359214474, 0.1852843118123779, 0.23500942197178792, 0.234917907421137, 0.2422220415362145, 0.23815706002751047, 0.26971705293277565, 0.2949517815212899, 0.2942958318102199, 0.2926225648418839, 0.31891900623549385, 0.34120368489800273, 0.36078791420599826, 0.3555331256359205, 0.3414801268419478, 0.3807161119400755, 0.3807534375310079, 0.36451283630712206, 0.35010154826839834, 0.36722269810036245, 0.3660263123895371, 0.35255923537163564, 0.3462253077141821, 0.3874034805797143, 0.4131757522403135, 0.40744748807140835, 0.42492790866724683, 0.4136212467000008, 0.44152054124923007, 0.4407876577964684, 0.4156554378981913, 0.4281285594994666, 0.3944382555788672, 0.39651036505443066, 0.4076005534746411, 0.4024741231292809, 0.409794083360133, 0.42799548329957904, 0.4450623715449768, 0.41737810001299114, 0.4045836788088063, 0.4180810634071085, 0.46451327265751385, 0.46971852848183676, 0.4876144309355139, 0.4710694417375172, 0.5020261728460279]",False,0.8000,0.6000,0.5000,0.1000,0.2000,0.0100,2.0000
29,go,Hit,1,0.9100,"[0.0, 0.03206867539933016, 0.0195981752085014, 0.022912966109040735, 0.0502554219091967, 0.028646775508688976, 0.027359976041266932, 0.05566320182139157, 0.08440177957049325, 0.07985923727329258, 0.09509506291883761, 0.10523477112631685, 0.1344185184916757, 0.15070465206161268, 0.14630152414367256, 0.133756206614487, 0.1409647376417831, 0.13505146131361861, 0.1366927519029572, 0.1418945938896498, 0.1316809162948928, 0.13596470073680966, 0.17692304996586417, 0.18736600430842218, 0.16429583806288348, 0.14908208801110276, 0.15057956399762334, 0.1454968043001328, 0.14752405380804093, 0.131830087018556, 0.13569421382806124, 0.13094359099752895, 0.13724692791138784, 0.12028364886497257, 0.13037338410652782, 0.14326081639860813, 0.1529800573380915, 0.17622187261184616, 0.20366916577239377, 0.16714408000793912, 0.16414076762228685, 0.1635640771801825, 0.15936830997498003, 0.1989645328913624, 0.18383669163287508, 0.18868890101365585, 0.2123008246690581, 0.22819016913253126, 0.23074252410305351, 0.23832397585749643, 0.23455245287072798, 0.24083151340857295, 0.2564008732336918, 0.2574207119027887, 0.24594429750898053, 0.26701174341460876, 0.26154320440767787, 0.2752776621290809, 0.3004307618979105, 0.3040876997601201, 0.28017140027009646, 0.31956013259084837, 0.337440954400817, 0.3644888852905215, 0.3722853688453018, 0.3870301476699118, 0.41292493707690303, 0.41224004649112134, 0.39406315785417123, 0.3970159810834408, 0.40536616139295256, 0.405886038351946, 0.3937535569565885, 0.42018475589246806, 0.43819545914542574, 0.4606048928712141, 0.44107377546003806, 0.475441089856058, 0.48087020576248174, 0.49837378942375493, 0.49064599145938986, 0.5194627899543363]",False,0.8000,0.6000,0.5000,0.1000,0.2000,0.0100,2.0000
30,go,Hit,1,1.2300,"[0.0, 0.003560457514364757, 0.01590469656056477, -0.009121851070243436, 0.02703888277446892, 0.019942380538425848, 0.043328420182869656, 0.030495864971260625, 0.05067319169390563, 0.03324905380596967, 0.040579491654186284, 0.06037808603429923, 0.06614817348946844, 0.06565170074524744, 0.08016561251087935, 0.05665058657530591, 0.06333435966020548, 0.03958871782836724, 0.06850400164426476, 0.0705579163372412, 0.11283632200487344, 0.12483898233846488, 0.14068568040432997, 0.1741292568906247, 0.1750369685363719, 0.17327714677365463, 0.19105086066382215, 0.17664898383814936, 0.18768471122699878, 0.1946971245515458, 0.17274505334416787, 0.14907174517790997, 0.1544509605868083, 0.14975974617795013, 0.1266925346677235, 0.13543550737354204, 0.15034137354422392, 0.15161883747202512, 0.14331141907010755, 0.14686467022572838, 0.14641035895616786, 0.16141708769060625, 0.19886738932966025, 0.19213020584581003, 0.21672548847208645, 0.23187881430564727, 0.2651455860507759, 0.283655214784438, 0.28623086522078106, 0.30367573398579206, 0.3048873395918721, 0.30277752923385104, 0.29602116376050447, 0.33805852407466364, 0.3143077707144049, 0.33326682625749554, 0.31545964436824836, 0.31513284560984234, 0.3108887608518175, 0.311018661768642, 0.3113618575828569, 0.33196353758363434, 0.33433898334937306, 0.3736216714186688, 0.37233719118636655, 0.38561133605479814, 0.3619493101888631, 0.40547151935700043, 0.3953953829462172, 0.4041820929428128, 0.39708277766640987, 0.35835718271189426, 0.3300201458480865, 0.3236638260739877, 0.31501501634770884, 0.2850445426720502, 0.2730290192030107, 0.26613080306097486, 0.2670348338242627, 0.23269140637283467, 0.22698426029493735, 0.24626961511772902, 0.25021542001158575, 0.2373183178617986, 0.23212906621562526, 0.2315760906208079, 0.24161711416845696, 0.21299078921411535, 0.2054604500488374, 0.20591358095501033, 0.23187786455522302, 0.23814388305819204, 0.2530928937488453, 0.27101978641710106, 0.2813534661869549, 0.3313185869878054, 0.3343122287103764, 0.3564070294406714, 0.37538385518094125, 0.34908174996787633, 0.3332999064363014, 0.32852552401294655, 0.3171556760692415, 0.3466823930315625, 0.36632668515505945, 0.3417030448866874, 0.35288026772655906, 0.37903385390772937, 0.37928935061791125, 0.4207410243407462, 0.4303873554548625, 0.43693418727708905, 0.46329796848676563, 0.5257786142101049]",False,0.8000,0.6000,0.5000,0.1000,0.2000,0.0100,2.0000
31,go,Hit,1,0.7000,"[0.0, -0.00550724927867181, -0.03808697661730934, -0.03442135576797262, -0.02414198887694843, 0.022076217466889213, 0.03711474882865909, 0.06613526120884997, 0.05295413654036803, 0.07674345202156983, 0.04553311235622533, 0.046175898853861065, 0.05637192141352562, 0.05207731035274698, 0.051777015541634774, 0.030146847152628324, 0.03982291732426807, 0.06874682636975825, 0.04921270515804267, 0.06920857002850417, 0.11969742261295643, 0.16021908381943292, 0.18554981997021391, 0.18692054053321383, 0.18367663682076318, 0.22463782805939925, 0.2536877387227355, 0.26054416726054985, 0.23986739514104566, 0.230421493503807, 0.23014692362731873, 0.24209562927382453, 0.2766071617086778, 0.2872171138095627, 0.3272438963745117, 0.31800012591168986, 0.3214747592072802, 0.3352860736206024, 0.3485419148676905, 0.3437896283405886, 0.350585119453049, 0.33287826021640554, 0.35714276043315724, 0.35850813556227235, 0.3723018036189714, 0.4355965174185934, 0.41229380866671667, 0.42009197984722574, 0.4418830821042198, 0.4546615738066214, 0.4526904630702867, 0.4185002176382467, 0.4175445602361353, 0.44047874843749313, 0.4504241183459767, 0.4628620438512251, 0.4254161835220639, 0.43968291815527105, 0.4587660414086183, 0.488702207544083, 0.5197498313626575]",False,0.8000,0.6000,0.5000,0.1000,0.2000,0.0100,2.0000
32,go,Hit,1,0.6500,"[0.0, 0.04911488047787049, 0.021587117164330948, 0.03411459468048601, 0.029124396130086792, 0.03457350668052578, 0.07002785733075612, 0.06406279467251823, 0.06612407938632989, 0.10601284359465182, 0.12324711694374765, 0.1475219569935855, 0.15049512027300954, 0.18354311902201764, 0.21544140621325697, 0.27212806959067587, 0.2653697494486893, 0.2488487419194406, 0.2671209952647797, 0.29367643448231745, 0.28221756658215186, 0.2981626941030012, 0.33129519845481115, 0.3317963006433128, 0.32614546737066713, 0.3099001427231091, 0.303440547723168, 0.30075001066915874, 0.31196398167648187, 0.3164545885952278, 0.3223677870739866, 0.36393053430617917, 0.35413246923532865, 0.36025925633365347, 0.3962925733702344, 0.39556138328907764, 0.37532670642559407, 0.3707147792331814, 0.36495424581222685, 0.36931514290439654, 0.34672486294090765, 0.3842009361114708, 0.39593267095173557, 0.38446963841891496, 0.39520770171737857, 0.40616390665286495, 0.4106551424639168, 0.4332586356009026, 0.41956651848432047, 0.4435863699219175, 0.44494580159944624, 0.426376773654771, 0.46528159285825815, 0.4867392463299329, 0.4906190014902873, 0.5367002647879904]",False,0.8000,0.6000,0.5000,0.1000,0.2000,0.0100,2.0000
33,nogo,Correct Rejection,0,2.0000,"[0.0, -0.032587719025063716, -0.021820973288489233, -0.0329361943993898, -0.04507853022616881, -0.07168719068161661, -0.05616519638611861, -0.04203669134158441, -0.03455379908716396, -0.038550415893829446, -0.04100521154378313, -0.04864291500238031, -0.09426230394471627, -0.09830996125469527, -0.0928824444570844, -0.11904117404795017, -0.1250298713228248, -0.1563918440895399, -0.1603376734861886, -0.15424242042452804, -0.14315510936598053, -0.18933264175688155, -0.20962421284047406, -0.18254181896313607, -0.1993597557607718, -0.18973582156229363, -0.1828663211834863, -0.20975182548600058, -0.21918974390492318, -0.24048417524090304, -0.27982852163476324, -0.26330272419785244, -0.25040618385113644, -0.25701025627767016, -0.26484286883239444, -0.26670888126715425, -0.2879975705975101, -0.2989859544492368, -0.3185016783950016, -0.32490079561958257, -0.32688729562868846, -0.28839396779230586, -0.25917391089277864, -0.2815539142675714, -0.2847787934363971, -0.30162093162499076, -0.343886883352253, -0.3192583665052746, -0.29394255894139476, -0.28585518941905363, -0.2751602776529642, -0.26506362820441765, -0.2643767270522671, -0.28783917859213326, -0.30265224693037335, -0.2661825398009023, -0.2641620252438652, -0.2421565479640124, -0.24780605779995887, -0.2430095464122873, -0.24005805494890226, -0.2748565559030258, -0.26366232427050695, -0.2793749337604951, -0.2660796028919611, -0.26929541427690445, -0.2889390248042648, -0.3066892987499705, -0.3227521090224752, -0.33497320995024, -0.34747823924209364, -0.3304686867888331, -0.3636203847147928, -0.38923942427802627, -0.3782891219655961, -0.3516350462336915, -0.40131341238266127, -0.43599824834972556, -0.43873290979407664, -0.42536941552759144, -0.46657060600419786, -0.492333096065516, -0.49608803552652864, -0.48808290684751177, -0.4676774056684403, -0.4964546540408228, -0.48143816772506176, -0.4354444184070901, -0.41039222270528014, -0.43609706434586226, -0.45961064355814973, -0.4581757976920548, -0.46051946466390814, -0.4919434525998454, -0.5062231450829587, -0.5243461015530838, -0.5274461354765723, -0.5185962650136907, -0.49419311229230134, -0.5032553163588288, -0.5053756356067866, -0.49623024254575215, -0.4960546573333837, -0.5019855069519411, -0.536241515209896, -0.5477745886373772, -0.5224015814962846, -0.5124614433598143, -0.5050940419048559, -0.4779190532818837, -0.4994741553691421, -0.4972029747960727, -0.534538258896467, -0.5338248461553925, -0.5664548210314286, -0.5548282901152922, -0.5264474324782918, -0.5451881393133153, -0.5395966875902876, -0.5487013987867925, -0.5702648403788597, -0.6136687289504167, -0.6115645895644951, -0.6117480893111443, -0.6475197887852193, -0.6685942668225066, -0.6932637192287238, -0.7175572816284483, -0.7359427213262056, -0.7324362449474544, -0.7631034996914392, -0.7823798637713116, -0.7972664790528369, -0.7785114756415793, -0.7600905047989001, -0.7927916114819074, -0.8134057807101908, -0.7897218240289859, -0.7700523266296416, -0.75777244704558, -0.7482140852439267, -0.7490162913497856, -0.7515814013998081, -0.7590991654629204, -0.7988993095046137, -0.8086443623449001, -0.8030225807248212, -0.82816416882643, -0.8341955925692772, -0.8358195158831999, -0.8622289704994431, -0.8854499949608425, -0.8840752539060582, -0.8817775171738961, -0.9037889370340001, -0.9088888235770869, -0.9015997601914514, -0.9458393830972542, -0.9171363067860063, -0.9348556664270015, -0.9488402186565271, -0.9121214754970866, -0.8901524944448121, -0.8906778860023505, -0.8677457430925773, -0.8577327782024452, -0.8785559587620743, -0.8668899740577932, -0.911168480221088, -0.9188034412133792, -0.8975108867560179, -0.8854840742633565, -0.8975186241592666, -0.8870664933984875, -0.8938690208420317, -0.8615955331751799, -0.8292326294654143, -0.8285145396102997, -0.8326491842391177, -0.8371857374575267, -0.8368648551630101, -0.834831226453939, -0.8243781581844756, -0.8235262845924965, -0.836558748394102, -0.8114452191210371, -0.8339210777454247, -0.8436188307638683, -0.8451871917594177, -0.8586021750023454, -0.8570093983563235]",True,0.8000,0.6000,0.5000,0.1000,0.2000,0.0100,2.0000
34,go,Hit,1,0.4700,"[0.0, 0.010082479250883306, 0.0494460601591147, 0.03422960540355166, 0.04063253729891519, 0.06576584359193692, 0.05895801786447754, 0.0841799663226685, 0.07622646518326037, 0.1030256036958146, 0.10740798549288805, 0.11042611941065147, 0.1051947393195587, 0.14918853692501458, 0.14973979609754717, 0.17177735730786417, 0.20556194876338402, 0.22730627536068107, 0.21329588786333553, 0.22026748855839018, 0.24160562719523238, 0.274024269119644, 0.2508497207892701, 0.26327131310392654, 0.2951770769114883, 0.3646719778517018, 0.367316587403996, 0.3869082134894112, 0.422229056590663, 0.4437952439405122, 0.4310588761529494, 0.4354112757560179, 0.4535722275014756, 0.4653257556611989, 0.4846753939089875, 0.4799850872109097, 0.478823413974369, 0.5329482404659133]",False,0.8000,0.6000,0.5000,0.1000,0.2000,0.0100,2.0000
35,go,Hit,1,0.5900,"[0.0, 0.0009176510924836538, -0.01967210134774447, -0.03766854395362215, -0.038369825628603686, -0.02976029284387649, -0.0070813570568061465, -0.008726808234137573, 0.010371256160751463, 0.0018077966272885548, 0.020403619709801802, 0.04585225508838532, 0.05694186137260068, 0.04295000939431936, 0.06617004532199053, 0.05985367282257414, 0.08455111196552281, 0.06932760714865208, 0.08914654277876834, 0.1067961630382521, 0.1290729974122334, 0.15050168255288723, 0.17426033014496825, 0.17367108090633254, 0.18520535173102157, 0.1603190375976092, 0.18893037113542294, 0.20508986457494272, 0.22185651516139665, 0.19016687269032365, 0.17661117107284846, 0.22068607338983537, 0.21644917501773006, 0.2253851142518496, 0.2549692396776255, 0.23257466160295762, 0.22665403504097278, 0.2546623431879834, 0.2738155745797519, 0.2885462789110306, 0.30007632726492367, 0.3464994570816411, 0.37141655250850514, 0.4309530454163985, 0.45704651068233376, 0.4669414304103711, 0.4752210789825352, 0.4654473552329918, 0.488553338945414, 0.5351881435925939]",False,0.8000,0.6000,0.5000,0.1000,0.2000,0.0100,2.0000
36,go,Hit,1,1.1200,"[0.0, -0.02569929901569494, 0.01456025318986584, -0.0177131483918561, 0.015543378763415966, 0.014111609348290699, 0.06540525338220374, 0.06003080458343586, 0.052539588997665296, 0.06548926405989638, 0.087178264923226, 0.09735486039427446, 0.13225590971437634, 0.11505227457729182, 0.11461657002532329, 0.14175653555500412, 0.15797628541075903, 0.17951805759274964, 0.17527068208340257, 0.195860622224253, 0.20134175237157026, 0.23113252868478984, 0.24532164963705974, 0.22890808473851604, 0.2080925432012384, 0.2044847137348524, 0.15460680502467877, 0.15191905400818442, 0.16379831933833558, 0.17962381760190035, 0.1790715391451741, 0.15614456074440494, 0.1274898638719577, 0.16261186765360197, 0.16274790616727203, 0.1473919553714247, 0.16724773250027358, 0.17106266891060856, 0.16918205836074665, 0.1641501531352393, 0.1719906818901481, 0.15212744300636843, 0.16331751067765113, 0.1767518569377582, 0.1840761802408155, 0.21453610855462024, 0.20705934704158163, 0.19224320894022376, 0.1644737410295052, 0.20301094997833108, 0.19582273765689448, 0.18985593626986497, 0.16557359492209867, 0.1904034879761107, 0.1746296037033213, 0.16602414320678263, 0.1765469209978896, 0.18102360646752377, 0.2083648912178296, 0.1990616346666424, 0.1612327907035891, 0.1671261009200357, 0.18212006292980404, 0.17064830000822173, 0.14524562830362378, 0.16658218152096874, 0.16458265241006073, 0.1566659020674818, 0.1994079109553105, 0.20560054243321596, 0.19295001823073116, 0.20212561693596293, 0.14278658480389578, 0.13585351190033804, 0.1448592392292738, 0.14493891813869758, 0.14990802984421872, 0.14705046249995385, 0.14149496502778194, 0.1462872608619849, 0.18741184716121911, 0.20249243756626056, 0.22977685101993806, 0.21821453648229422, 0.23548482643801724, 0.22774708887556314, 0.23136063549118738, 0.26078939855863703, 0.2795260601901766, 0.2946688897780277, 0.3119129860156612, 0.34233318311961725, 0.3387352018824494, 0.37942935882280077, 0.3852462476362873, 0.412718712509287, 0.4242906021118045, 0.41181994273813605, 0.40952592234842383, 0.44386547290055345, 0.46833454664409746, 0.47631202897377345, 0.5102719045141403]",False,0.8000,0.6000,0.5000,0.1000,0.2000,0.0100,2.0000
37,go,Hit,1,1.4100,"[0.0, -0.000949293596976904, 0.02754717520715297, 0.029002265476277735, -3.9857898287410515e-05, 0.013152144294727771, 0.042896146746043654, 0.03248353235849741, 0.016876513494984948, 0.0271455471801455, 0.024317291331372413, 0.04297398525795541, 0.07824968271343863, 0.11660477746545167, 0.1571648170510762, 0.16643637373712192, 0.1708397278665876, 0.17459090412491263, 0.13243068274192288, 0.14277934166866693, 0.11723881454679626, 0.12461796649426443, 0.17697430458426133, 0.1782473276905384, 0.19907218379480493, 0.18517148606519446, 0.18930840734616888, 0.21741799548221197, 0.22275923391457958, 0.2563063263785082, 0.2543461653713178, 0.2663781727504249, 0.27300528844910116, 0.24990742528820742, 0.2819963204190814, 0.2460242686807971, 0.24252721500708457, 0.25411884979515836, 0.27141301959303027, 0.28449301214820927, 0.30671077838777, 0.3375361161735951, 0.3533670870276243, 0.3365347466333792, 0.3170565651813902, 0.3248782160321384, 0.2687616857470428, 0.2773226834029543, 0.2825443486823979, 0.25883420865553697, 0.27318953210123953, 0.26007272542019993, 0.22614889336299637, 0.22025317430215907, 0.23142112118918842, 0.21394811694577004, 0.18226826587768075, 0.19858138892475735, 0.19400286487428095, 0.14947600066054983, 0.1368546173891332, 0.11146958886809788, 0.11586116199296712, 0.10973975737529831, 0.11919917243873107, 0.1438656964740943, 0.16965191606469082, 0.2016801558194438, 0.21286335121598202, 0.2031367504628005, 0.1929462432860434, 0.19201741162273533, 0.2132832927656756, 0.22400680436501497, 0.22122677313138134, 0.24092537467118347, 0.24701602541051684, 0.24326326478619548, 0.24316287701457462, 0.23708590540528365, 0.25841273226671063, 0.22011932402843395, 0.23160687237329866, 0.24494296163212592, 0.2417371291921336, 0.2656713622502129, 0.2608237991005385, 0.22369446981470187, 0.25511406220383503, 0.25278770386081933, 0.2430383769394683, 0.25893944960214155, 0.24908982736358887, 0.2607527575381035, 0.2783649052553667, 0.25231698849205675, 0.27228079168678004, 0.30052109510966507, 0.30267759406504974, 0.29478132791281125, 0.2565869048140558, 0.2712022642873247, 0.2794883048580532, 0.2854574817496514, 0.31323388039294003, 0.3126510509215037, 0.2743899982639978, 0.26284773104883463, 0.2849669160618006, 0.32060245383219454, 0.3294883011099752, 0.3595693186659811, 0.3680924775452031, 0.4105289341993451, 0.42300469499393, 0.3879046848649131, 0.3820358858943432, 0.3869839395095354, 0.40591205099712296, 0.4505020168314893, 0.45701079738885114, 0.4828708727523775, 0.47270987212338184, 0.4357112155732755, 0.4328525415421634, 0.41092687516747867, 0.39861935730621495, 0.4360446846432078, 0.46092919891227946, 0.47556378767932417, 0.49499565812163815, 0.52760863728351]",False,0.8000,0.6000,0.5000,0.1000,0.2000,0.0100,2.0000
38,go,Hit,1,0.8200,"[0.0, 0.006094938107630934, 0.007632803953810371, 0.0018292182797239034, 0.034949887849468286, 0.06690484749192313, 0.05928771608452086, 0.05683321160496387, 0.0598607009728687, 0.05677338782453582, 0.08122538524555992, 0.0895783208183403, 0.1111440688102536, 0.09283592850430705, 0.11505311776869807, 0.12439906589925662, 0.13928647845583994, 0.11876135847032013, 0.13012050782654705, 0.16122640823851062, 0.15860995763569763, 0.15216230574261969, 0.14699188164818244, 0.1541032629927618, 0.14224620546800304, 0.1653589156856223, 0.18331017508070305, 0.20439132806782787, 0.218046950100534, 0.22580769998065758, 0.24761348413466727, 0.255793832666624, 0.31176457167979416, 0.3491457282366447, 0.34907600339232986, 0.33879307471439213, 0.3435209059005561, 0.35119570733556493, 0.34155940934664597, 0.33052911505985366, 0.30663873657422713, 0.34944001873473207, 0.3574760836951845, 0.39247965193037615, 0.38594711340472815, 0.416059965884798, 0.38553810853635334, 0.41223469380561484, 0.4016197111628767, 0.3851803181871389, 0.38705523099947214, 0.36271511616442503, 0.4021764667652537, 0.3953168950148436, 0.3711343627526539, 0.3503238436620392, 0.34265528369413467, 0.35099548064136066, 0.3222075138059198, 0.3318594145934339, 0.3249866932861624, 0.3339969293623313, 0.32694609628154747, 0.3676436224743028, 0.3815450235374134, 0.3867611129909398, 0.40959164166200557, 0.4467534336114254, 0.4480839348383061, 0.463972873968819, 0.4685307604799088, 0.4746173794490862, 0.5173423564831391]",False,0.8000,0.6000,0.5000,0.1000,0.2000,0.0100,2.0000
39,go,Hit,1,0.5200,"[0.0, -0.024882993223722255, 0.027903324767344487, 0.049739374337039115, 0.0827124095382106, 0.08450179749976974, 0.13785317035032388, 0.1401369034552026, 0.149700996433607, 0.1864996239347957, 0.1845875942727127, 0.18815192359949848, 0.22325204499381981, 0.22527415003658252, 0.24161741908979695, 0.22869472816317338, 0.21547707109447, 0.1968492191001468, 0.17419056658230517, 0.15765459852081712, 0.1689743018948519, 0.17654936026142637, 0.17017785225877452, 0.21496532561108264, 0.2117260803090946, 0.20691329568457467, 0.19168492088003314, 0.21122680357072812, 0.20058946152659263, 0.22420080218578828, 0.2655726723821711, 0.26677772379270615, 0.28046765761230985, 0.3051451998389233, 0.304836970179397, 0.3502850435874394, 0.3898794361490221, 0.4147711372644296, 0.418448575995093, 0.440370966123986, 0.4628179830459022, 0.4999003272301757, 0.5172076686717488]",False,0.8000,0.6000,0.5000,0.1000,0.2000,0.0100,2.0000
40,nogo,Correct Rejection,0,2.0000,"[0.0, -0.022856410491534102, -0.012195370123952005, 0.017947962495489477, 0.04843465638236233, 0.04019854270044864, 0.03951160749637855, 0.03730049183480719, 0.03898547021669471, 0.022609673374881924, 0.017679142671250852, 0.005430073038893823, 0.031725481460935484, 0.049414153979232864, 0.03390534566162186, 0.06805145032020664, 0.04108313248880261, 0.03674829063224941, 0.05036528788802011, 0.035541263337776456, 0.06972006435688072, 0.0910666711772377, 0.053151579639650545, 0.08912265669996544, 0.09336550648842448, 0.0942455510442888, 0.07131928506101978, 0.06938781744227242, 0.08295280927815575, 0.0770335327102251, 0.054506935125851336, 0.028230165604592523, 0.03403427094076994, 0.003949999398761967, 0.0006996724686749462, -0.027713395420607176, -0.036004700109818, -0.04793899283031711, -0.023952121901820066, -0.027291374165790947, -0.01195391189475311, -0.03807870609258679, -0.050365352002983116, -0.06676801230196402, -0.07899906876490405, -0.06580993113115156, -0.05877595192579975, -0.047451883205975307, -0.04318803383128916, -0.07409706684642581, -0.08690126225278402, -0.07812391085192938, -0.07962390699288757, -0.10663569091274168, -0.09575887172047963, -0.11793784479445113, -0.14394840732611433, -0.124436047479616, -0.13412573645602352, -0.095106764290775, -0.11076375434870481, -0.07676386284191182, -0.05414853292538922, -0.04210203695984488, -0.04867759985365503, -0.04720755204069099, -0.030607157997852737, -0.029585458137591426, -0.003168432856151513, 0.0004783407082253393, -0.0024159802698673705, 0.01339710166957735, -0.013687330497582369, -0.03941868296325082, -0.04488331574952566, -0.05689156725849808, -0.04192600943342657, -0.02773880148839076, -0.05745469727068861, -0.08295620730439579, -0.08814680281554803, -0.07755311670822654, -0.08164795020427407, -0.09352080101685381, -0.10481651640155466, -0.1307679993539281, -0.1249339335406646, -0.12605450331909965, -0.11963763741352877, -0.11622046436774769, -0.14175865899880497, -0.14530249275074422, -0.16754988666065268, -0.2058959463261792, -0.22776934485083788, -0.2398645034358312, -0.23729455792253912, -0.22658741368594518, -0.26276518324548703, -0.2187466698713267, -0.2218601877443144, -0.17958841852521554, -0.21596641077961481, -0.21234395122027303, -0.22259336323742854, -0.22495993725280866, -0.23418768365426998, -0.2354153916272864, -0.22297786218296659, -0.22865521796764998, -0.23590037609687953, -0.2542986736114428, -0.26501972121892964, -0.25580471959050705, -0.2759803806985474, -0.2983209202738388, -0.2881245077758887, -0.28691336278448093, -0.29720303714944735, -0.286077472753304, -0.286545091021123, -0.27648729991037596, -0.308119278886502, -0.32912609776742846, -0.3588894826845628, -0.3351826194812038, -0.3516126210064518, -0.3532242441900343, -0.3572470454321077, -0.34585154158535525, -0.3700559558759783, -0.3588403087514699, -0.3737256775504618, -0.38258826457606526, -0.3961951982583535, -0.38026164557077324, -0.3835934824090613, -0.3853257477503787, -0.40031632995415967, -0.392696489086175, -0.38960625036370544, -0.38743977748723485, -0.41008393205553306, -0.39541853748822925, -0.40719111673508457, -0.43707525372603406, -0.4318516942683732, -0.4200028008352378, -0.42349655103888256, -0.42854576044834247, -0.4045689061304042, -0.3967479493322752, -0.4025345171636653, -0.3664013438979736, -0.351366770099658, -0.38247127472780784, -0.3868152922618098, -0.39051547256063185, -0.3859305314154739, -0.3718298179269848, -0.3993042662944031, -0.41736916025792165, -0.4328914669953351, -0.41591289023005734, -0.4122112575960609, -0.4199081129514162, -0.45242242890775536, -0.4962780443747069, -0.48885959211447105, -0.47157470348534664, -0.4816532953795976, -0.5020496215196198, -0.49376931873909174, -0.49865822963321027, -0.5215642746821639, -0.5463218139822122, -0.5129273959705563, -0.5184798639242116, -0.5386144542040885, -0.549225657763744, -0.5586878799390439, -0.5883822620800929, -0.6221425802571873, -0.6238175749323576, -0.6126119524427256, -0.6138857183155866, -0.6012705192222404, -0.6417810433148181, -0.6713317058816193, -0.6957612991568964, -0.6858213285597332]",True,0.8000,0.6000,0.5000,0.1000,0.2000,0.0100,2.0000
41,go,Hit,1,0.5400,"[0.0, 0.017022500157869144, 0.025388248336685987, 0.0356878563493945, 0.06317930346639247, 0.07638181416808933, 0.05385027825715923, 0.10229510467721409, 0.09401222649161972, 0.11341613673040593, 0.12741957248491487, 0.11862305134168782, 0.15400828235546923, 0.130977183954277, 0.13131562804827976, 0.16889153023721615, 0.2070350645425446, 0.2274674874879754, 0.22988470072487183, 0.27579213212874965, 0.2578839695743435, 0.2674666893931389, 0.2938167034746794, 0.3111628827278029, 0.32560080021809956, 0.3597950721906353, 0.3503502251239003, 0.3469281207514707, 0.33977526394978175, 0.3390206253251295, 0.36244930281028076, 0.3834806602522661, 0.3824541799170777, 0.41018974797309965, 0.41606493949085477, 0.44563102677595046, 0.444968071607188, 0.4725834538489462, 0.46804352371816965, 0.46830191393719967, 0.46147312114146977, 0.478074610548241, 0.4975508495686299, 0.49918859259791987, 0.5031869411604559]",False,0.8000,0.6000,0.5000,0.1000,0.2000,0.0100,2.0000
42,nogo,Correct Rejection,0,2.0000,"[0.0, -0.01258581553847532, -0.052792248013692415, -0.05474877019269018, -0.08702679730758286, -0.07743438005003413, -0.08373904052855939, -0.09455549751096422, -0.11212592566351304, -0.1281495293989456, -0.131836092574361, -0.1535058730829333, -0.1418065581591612, -0.1466557091134366, -0.13851545307478655, -0.10747825139455353, -0.06999233940785317, -0.07980198643337273, -0.09847081372952322, -0.115229164422734, -0.10655074273055554, -0.11852557629704842, -0.11096935675738509, -0.09755117113221615, -0.10642917940210295, -0.12888805757966082, -0.13880661254795923, -0.17487888877344088, -0.1561384839128294, -0.1563387333541324, -0.15175034151852648, -0.1759182071954038, -0.16583089129117298, -0.14649740159497704, -0.16722455199850061, -0.17586782161828135, -0.21817511298774553, -0.23365220272878662, -0.2679580174553422, -0.2764385377145379, -0.27259808136603186, -0.3051705210109988, -0.32701286382897665, -0.3146862875142134, -0.3293709691097459, -0.35637295097996724, -0.36454375184338644, -0.37780803186862527, -0.3496979740148491, -0.33562571488934984, -0.33834944742953543, -0.36713618965380707, -0.3717756041670516, -0.3946787470231774, -0.40293440679800496, -0.42030175849004525, -0.44133474466589406, -0.43606320141756466, -0.4351927599639565, -0.42604961594669977, -0.42100699835569294, -0.3963523317987676, -0.41985142444407364, -0.463959624768218, -0.44997663028021856, -0.4865286081586373, -0.4739122098470591, -0.4959572422806376, -0.4676225382768342, -0.47440207881767965, -0.4700982459822759, -0.4734608949345111, -0.498077143713336, -0.5188351433008968, -0.5588951413749274, -0.572576948177822, -0.5633358852129388, -0.5672626652215734, -0.5541833736140338, -0.5761087904138403, -0.6169659836418426, -0.6706106231091085, -0.649836907871333, -0.6397222121200226, -0.6197028079311548, -0.6392276998428472, -0.6329973875656156, -0.648407899429943, -0.6455019573124079, -0.6545034739626453, -0.6430061977804995, -0.649737398152572, -0.6576915200447772, -0.6401661750219999, -0.6547711767443253, -0.6415186059386352, -0.6898766536960007, -0.7120351030764018, -0.6890310417553538, -0.6963191376642187, -0.7195426405032672, -0.7735272388565371, -0.7553876007032612, -0.7320798783582644, -0.6867888371846995, -0.7167133546474351, -0.7436856400870345, -0.7451182843846996, -0.7625604917435138, -0.7859900143190509, -0.7784101940627065, -0.8035094182579587, -0.7988020278783033, -0.8318820750479832, -0.8256772048626829, -0.8757551499040489, -0.882447914815758, -0.8775596454301078, -0.8974661162981495, -0.9164390312169615, -0.9206026887932669, -0.8762460390980821, -0.9105294092757317, -0.9439750210697512, -0.9644716125680886, -0.9712479750486972, -0.9940647106893205, -1.0596786981037312, -1.068726597992682, -1.0323159968912456, -1.0146527465299342, -1.0285918428410588, -1.0244676376378634, -1.0537699518307355, -1.0473843087448074, -1.0356638448038533, -1.0279135075784156, -1.0502231440774525, -1.0804625520580984, -1.0752417855067902, -1.0808538709483047, -1.069453481679256, -1.0480336336584388, -1.054850017889362, -1.063615184988072, -1.0622016736962592, -1.0942639288811589, -1.1119748407764656, -1.1338099091229, -1.1091185713426397, -1.1479458257121105, -1.1632269658381176, -1.1751421471374162, -1.1802327769873, -1.2051888244487723, -1.1989776345885736, -1.1962025416956141, -1.1952372809630236, -1.2048906678129887, -1.1846536404377253, -1.1771516754060942, -1.2113786669044542, -1.2213489356170988, -1.2398732444916123, -1.2443649598993631, -1.2540223839258218, -1.2418682556157798, -1.2396728735767082, -1.2484468578426187, -1.2429307024554896, -1.2409826636268118, -1.2463560620495826, -1.2393956618363628, -1.233198955832238, -1.2417576929182892, -1.2352167776828729, -1.2449058378591038, -1.25204439922046, -1.2518071552233367, -1.2364512328143105, -1.2511741456762593, -1.265260169070654, -1.272850079133618, -1.2670296301322082, -1.2992048366287026, -1.255210603473073, -1.2343250825277459, -1.2193743114070985, -1.2018736562202132, -1.190209466824921, -1.1889514710091453]",True,0.8000,0.6000,0.5000,0.1000,0.2000,0.0100,2.0000
43,go,Hit,1,0.6100,"[0.0, -0.013375493032835958, -0.04484873734099949, -0.04983105416180702, -0.04402841665341052, -0.02922139899759294, 0.005839032971382663, 0.021855217961516685, 0.029874568131129618, 0.0702042061921091, 0.10424473050482895, 0.09599381266395414, 0.11257349911174847, 0.08107802575043006, 0.07659036842440543, 0.08819732323437754, 0.12126424839992793, 0.14884742328170353, 0.1787679504315408, 0.1805200773508005, 0.16970940278382074, 0.21118030141594835, 0.2203490315682342, 0.22451511037087718, 0.23705947115968917, 0.24429568267273663, 0.2227414249826548, 0.2293964946164151, 0.2421739107203109, 0.2286175618369228, 0.2412280314061983, 0.21324880842240995, 0.25178630740051317, 0.27207668706293053, 0.28360147405010827, 0.33478868918722055, 0.36183466002549497, 0.3316586814083527, 0.3471443070173542, 0.369625308114068, 0.3559044133821827, 0.3824808048190704, 0.3852781122084152, 0.398041610251658, 0.4081504882067212, 0.4260550207406396, 0.4107390956453332, 0.41179259237747795, 0.4276405307194801, 0.45882262526846956, 0.48368618258676915, 0.5046188856306096]",False,0.8000,0.6000,0.5000,0.1000,0.2000,0.0100,2.0000
44,nogo,Correct Rejection,0,2.0000,"[0.0, -0.011617096548221878, -0.01995093502814703, -0.04930879827709848, -0.04221719232605862, -0.06141683463319195, -0.06652378561787697, -0.1014952573763247, -0.06445347230575998, -0.04224905617543955, -0.04447794437932545, -0.031683825453599726, -0.052211484272819006, -0.037755026038366404, -0.018777549997163537, -0.013815280393291943, -0.021366789182842343, -0.009566828853332567, -0.032826252862961425, -0.05481508097791135, -0.028129110951604825, -0.04594501487460906, -0.044914239350261814, -0.01891406627769742, 0.011225784792437545, 0.018602117319630837, 0.006732239120002856, -0.044021754034821066, -0.026779711080874312, -0.025390222409995295, -0.028257552600595034, -0.046828862098383627, -0.02595836165645074, 0.0013838747386178234, -0.009669307892059494, 0.002412597714873451, -0.023383900768313967, -0.06964016009864071, -0.07977403702349944, -0.06788614876596996, -0.09093816304015993, -0.0893540187361753, -0.10193586121513229, -0.09706016053042307, -0.0963199655533895, -0.12056585326032505, -0.1325386820091457, -0.1546149300280478, -0.14735354794825883, -0.15930450270151908, -0.17393780330008005, -0.1643899764772287, -0.15209173077819205, -0.14458549738594478, -0.14288974856219866, -0.16889640667228395, -0.17690891753256974, -0.1589014790339325, -0.17168367854403402, -0.16677194623891947, -0.18027710478464049, -0.23017451252281854, -0.23490587509639396, -0.2596733233986683, -0.24354389820366937, -0.2437228198341694, -0.26487544481406494, -0.27146450910879943, -0.2816127509502165, -0.27686002955955363, -0.29700311383670697, -0.3129304810540755, -0.3116373468303891, -0.26877905901356286, -0.2703426931119848, -0.3041620884520145, -0.31168788215834825, -0.33771223215363577, -0.35998359278450437, -0.34270348228898484, -0.34813248930393587, -0.39834460817566625, -0.399893834656298, -0.4084882530578781, -0.4158914081688946, -0.44542191316866164, -0.4714849641020199, -0.4654103722591156, -0.46327242888502806, -0.474493104607845, -0.5092524440613236, -0.5028797716634797, -0.5051337644087925, -0.49147393680768264, -0.5042002018598823, -0.49009364578783066, -0.5117317167100448, -0.5111172079375929, -0.49366213852405644, -0.46980550151526107, -0.47696740285178735, -0.4921933516661501, -0.5249745770098475, -0.5408395551136065, -0.5457036792854798, -0.5881483073958695, -0.5475620056274472, -0.5538797069768691, -0.5858958574517081, -0.6293958373517836, -0.6399464348232802, -0.6612987904732994, -0.6860531077709641, -0.6925904946807513, -0.7441458906129098, -0.8062509643311294, -0.8376076382070338, -0.8448328782822618, -0.8453781509579857, -0.7980908285395532, -0.7870142093369815, -0.8032220080779128, -0.7843512232599053, -0.7833091176795495, -0.8073527909372964, -0.8024614196017388, -0.8360495346841448, -0.8590437900658058, -0.8426488012450679, -0.8649561534798614, -0.8651972879324935, -0.8447240195095128, -0.8496890479560563, -0.8239922719222968, -0.8606594913926475, -0.8562284291211268, -0.8817661182379183, -0.9045273330787635, -0.8886603412543901, -0.8807339346607888, -0.8676479335177144, -0.886921722888353, -0.8670217409594896, -0.8927852977283611, -0.8741083843448234, -0.8789212145650579, -0.8783373375488804, -0.8715922571478275, -0.8977983961533896, -0.9061773362949805, -0.9236642182538661, -0.9487422056053308, -0.9429257000997131, -0.89652376219577, -0.9038618220679027, -0.9342545383515866, -0.9637697265050557, -0.963443989155229, -0.9787200134224517, -0.9823440558811206, -0.9788812446185351, -0.9574774440066913, -0.9617257936259278, -0.9606584472775942, -0.9365485308470999, -0.9461495341237759, -0.9700584757310987, -0.9412724390966, -0.9813221270405753, -0.9924900022355609, -0.9852914359932691, -1.0016854658447396, -0.9962874021046373, -0.9927204621737743, -1.0208478101091285, -1.040212192248431, -1.0789623452926822, -1.08123666468404, -1.1160048325692957, -1.1417985469627483, -1.137253398319073, -1.1558019442905387, -1.1708285677847676, -1.1552230339859784, -1.1387411008300576, -1.12827430889897, -1.1253212951273635, -1.172889097543931, -1.191603317192303, -1.184523705102281, -1.178434636446393]",True,0.8000,0.6000,0.5000,0.1000,0.2000,0.0100,2.0000
45,go,Hit,1,0.6600,"[0.0, 0.04287844771464477, 0.03628171206285734, 0.03177886112282854, 0.020047941039400226, 0.06093932601033704, 0.059131689081154896, 0.06722344716146379, 0.04320655660428904, 0.09769134098273984, 0.09723175492095576, 0.09622631857226457, 0.10388367501234237, 0.082118648566802, 0.08609653828320034, 0.1097715569414073, 0.13921789648066443, 0.17359444039481642, 0.17120349961294817, 0.1720195823974319, 0.16152313500006338, 0.15986442630935124, 0.1679981493838508, 0.1834376386849622, 0.17484814939289, 0.16488199590905644, 0.18732755883892213, 0.21730529736039525, 0.24021034653593762, 0.2602439160922604, 0.2655271161935067, 0.25647415268202295, 0.28553971576920434, 0.27204115915798344, 0.3047280353344641, 0.3408783942108092, 0.3330467989162774, 0.3356602557223198, 0.3237155367727412, 0.33278288722862825, 0.3325789601362318, 0.3504655337458912, 0.3910937311111211, 0.3620623690899431, 0.38041354750648343, 0.37777035309149287, 0.3642902180138169, 0.3787240453351664, 0.41819046492610423, 0.4207530515191425, 0.45174282118382203, 0.4254486442175963, 0.42553152134321, 0.43381639251655363, 0.4529316874165059, 0.4799866060954669, 0.5071337173021201]",False,0.8000,0.6000,0.5000,0.1000,0.2000,0.0100,2.0000
46,go,Hit,1,0.6600,"[0.0, -0.006415450016121236, 0.03200779780014852, 0.05244871668142111, 0.07471172853997896, 0.060164061028926547, 0.06836307261805104, 0.08770879035468052, 0.096677947524889, 0.11242893969968527, 0.13441720529672913, 0.16068319599846526, 0.19903165616184781, 0.20236401087793637, 0.18754483111072798, 0.20672778283354282, 0.2255516731690898, 0.24170218365817575, 0.23033299266008328, 0.21865635236922043, 0.2479072772074708, 0.22893666427082218, 0.26740455182778744, 0.30087260244138814, 0.32401072125397296, 0.33615946726231477, 0.3270150525651655, 0.3656700444329616, 0.36093672261646365, 0.3839695883868119, 0.3914266369019552, 0.3627828809438355, 0.37785349204943286, 0.4077776994910399, 0.4297617279939973, 0.4219886575164534, 0.4175779958879355, 0.38297266619549525, 0.3791625715924233, 0.37842107223402505, 0.34247571553522044, 0.35136010621774133, 0.4083513785493801, 0.43382343438953336, 0.4536529588141512, 0.46299722722425735, 0.481567895330982, 0.49280652562067956, 0.4916709734240775, 0.48627066196446034, 0.46607821333195537, 0.4835255219505866, 0.4784352023433275, 0.4853924276175181, 0.47357141421725774, 0.4893941742770341, 0.5068932846310212]",False,0.8000,0.6000,0.5000,0.1000,0.2000,0.0100,2.0000
47,go,Hit,1,0.5800,"[0.0, -0.00297938799090049, 0.024325711392774407, 0.04165573053266926, 0.0504795671222216, 0.05933537526357531, 0.05284730859191142, 0.009544197496279626, 0.021087124331637484, 0.037794437961065755, 0.0760506938274611, 0.06961578264686745, 0.06574015448013094, 0.10567712482917355, 0.12801026551679354, 0.13871309827793799, 0.1478649278762326, 0.1646511449227787, 0.17776928926066143, 0.19899664818831592, 0.2441506509145907, 0.23203610167967406, 0.21342940879589992, 0.246781864242829, 0.2695394388444512, 0.27256267786267446, 0.2848803483090358, 0.31864096094963823, 0.3118684523391804, 0.3100064422300253, 0.31159811436152324, 0.3147906597895976, 0.3174092857278454, 0.30762273125614076, 0.3155313651556086, 0.29313407303787953, 0.31777907496991714, 0.345390937272745, 0.37561517022331925, 0.3987263555669364, 0.3829851950327803, 0.3898313919220224, 0.3968408310348902, 0.42471092529881127, 0.4227579458796747, 0.428294591600087, 0.4521054255173275, 0.46936497914000047, 0.5203995747744173]",False,0.8000,0.6000,0.5000,0.1000,0.2000,0.0100,2.0000
48,go,Hit,1,0.7500,"[0.0, 0.013599106697805678, 0.037716690995480265, 0.032422997937398404, 0.055296030646251694, 0.0633095860242099, 0.08209655487594858, 0.10711463774000607, 0.09301891781910487, 0.11109461041428689, 0.13325357817755254, 0.10537056371314651, 0.13277616075510157, 0.117633389692512, 0.07363976612418562, 0.09343864770079427, 0.10650345050665987, 0.1551141092861496, 0.1905536958471736, 0.19002001986157813, 0.18762063153647626, 0.20136547359595972, 0.20954942815734723, 0.2299841812740336, 0.20741100515286987, 0.24487767199103946, 0.27331559644091635, 0.2710756666838496, 0.26677828068095893, 0.2844525029883939, 0.2875386030099009, 0.30675117470463603, 0.289550941176264, 0.308583828178834, 0.3059672799635576, 0.32621589462007206, 0.3520590725197289, 0.36581816860437505, 0.3846487236985372, 0.36943059330135486, 0.36385331448114056, 0.406314489043328, 0.4890535386033211, 0.4980421043396668, 0.46779306569203827, 0.47980166200544466, 0.45651691745074613, 0.4742961622374227, 0.4551510920554098, 0.46551603041227163, 0.453208628728447, 0.4618145582570116, 0.4657167914758646, 0.4476501750748422, 0.4527014011040893, 0.4726959239843153, 0.4451659250351776, 0.4523319688247457, 0.449491386786163, 0.4392650118627565, 0.46826477125772625, 0.4684017056198339, 0.4726030494123017, 0.4912381235245363, 0.4968107094537622, 0.5193607295779168]",False,0.8000,0.6000,0.5000,0.1000,0.2000,0.0100,2.0000
49,go,Hit,1,0.4400,"[0.0, 0.01367931181517024, -0.019621940904273136, 0.006829726642687512, 0.0011831923121497917, -0.0036376072888955977, -0.009127941178449579, 0.01991310108767422, 0.060682483163907605, 0.06891489512565777, 0.10004144965344282, 0.09741487504023427, 0.1181367766383214, 0.1556802615681222, 0.16029204055296745, 0.16609561891242305, 0.16193919781347393, 0.1753205044100401, 0.20056995457686635, 0.20200754731317402, 0.24290165441291706, 0.2492239599183128, 0.23787712247262116, 0.2512978941429833, 0.2564104165073084, 0.28791103109347294, 0.33422055802441747, 0.3811849388915826, 0.3811611645012874, 0.40591030776190573, 0.4231245244241002, 0.43343502357368674, 0.4466216146010302, 0.4867775939394995, 0.5182815299960969]",False,0.8000,0.6000,0.5000,0.1000,0.2000,0.0100,2.0000
50,nogo,Correct Rejection,0,2.0000,"[0.0, 0.002832460107894906, -0.030473313048077964, -0.051746893128969546, -0.0667270270382358, -0.09019149748330287, -0.09809832596973722, -0.11840002449844728, -0.10863366469511081, -0.09057734103390978, -0.12673647990837966, -0.14276216160608818, -0.15232045833570743, -0.18110853424388076, -0.1936104027637134, -0.15327646080475799, -0.1491345265722093, -0.1650336747481954, -0.16369332688813382, -0.15652622969583804, -0.16625207465980732, -0.1561671144932589, -0.18446215211275505, -0.19860613951038364, -0.20992818992055667, -0.2151759776059808, -0.22484502104803328, -0.20464873310330312, -0.1853839327766279, -0.20344019334501467, -0.19746608021587891, -0.19538555921944237, -0.18726556148777274, -0.21051073065670567, -0.2218728281229693, -0.22869096097191888, -0.20456143703706656, -0.17947911549433784, -0.20925943000923136, -0.23470575339206493, -0.23576157314626378, -0.2809558733549005, -0.3230371771407145, -0.34271958203101344, -0.34742945816561566, -0.41125878384037495, -0.4039088113085512, -0.4287098268653056, -0.4484694599789686, -0.4643036299773076, -0.45376460149470715, -0.4239985111821931, -0.4517456090181684, -0.4318148776217597, -0.43066891837837057, -0.4597433571352108, -0.4646930312916451, -0.43805045956454985, -0.4306516677967336, -0.39686347465786304, -0.35791815788611675, -0.35575100512926433, -0.3626510382133314, -0.3571015604937382, -0.32757153287508456, -0.3007588069916782, -0.3085455926920937, -0.29176607501621427, -0.2979495926978858, -0.2906896056614093, -0.2954112980401861, -0.28438041551012666, -0.33376475144939666, -0.3507865405725912, -0.40307678548145254, -0.44256181369724285, -0.5057189983524704, -0.4626833970969209, -0.47183315439546375, -0.4722118394363446, -0.5014773495604335, -0.47586668560219453, -0.45713574758839437, -0.468425016621034, -0.5054770629767777, -0.5123626259756459, -0.5232789039228452, -0.5203598623148896, -0.5268354323027695, -0.5404679064706432, -0.5345898937699024, -0.5202538865942328, -0.4984613660263572, -0.5271716402118337, -0.5543106712793608, -0.5872160872074135, -0.5860427095230837, -0.5975425706369748, -0.5892533917791483, -0.6260455410440292, -0.6245658547939658, -0.6244477109655971, -0.6241516815714546, -0.599300724572179, -0.6042246036242958, -0.6387264934915159, -0.637139562002347, -0.6305551111564753, -0.6311465402653699, -0.65869513614528, -0.6655636745750028, -0.6976614472156258, -0.6920384148793792, -0.6587315632531389, -0.6599000006154131, -0.6523766480657884, -0.6208429255404049, -0.6305046555441156, -0.6815875840830387, -0.6561419673395057, -0.6543867097887356, -0.6663000737945658, -0.6816496980063814, -0.7052926216368439, -0.6974758381811628, -0.6983891594982251, -0.7456975389577957, -0.7529475294535842, -0.7786182184713334, -0.7807593340669273, -0.7957472795833704, -0.7977216296742927, -0.81756510249938, -0.8241687812869724, -0.8243815965393695, -0.8481732845378699, -0.8564184917430656, -0.8744296184344811, -0.8803751556251013, -0.8891872269448557, -0.9081251049125438, -0.885722110563656, -0.8909920231466498, -0.8549692947357375, -0.8352904460831486, -0.8453867761890673, -0.8372674824014505, -0.8605509837583123, -0.8568479086688807, -0.8680363196664657, -0.8762851117317849, -0.8998601545247742, -0.8950025865776867, -0.8632681157180292, -0.8812274057488119, -0.8721282926535884, -0.884263308978367, -0.9079579600209094, -0.9065265811357563, -0.9245485733033583, -0.951820208156154, -0.9731984778291329, -0.9921040236338645, -0.984962927266739, -1.0053504351218052, -1.0217957173015442, -1.010446083820151, -0.9957952324571885, -0.9831205447186634, -1.005724269219037, -1.0097766241268338, -1.0195454732556306, -1.025755415706411, -1.0094900136326783, -1.0095627108812326, -1.020392135716169, -1.0379822264542913, -1.0245752046247303, -1.006856353897632, -1.0000183226778416, -1.021396112148422, -1.0257591814743028, -0.998956366997695, -1.0079324599474258, -1.0317654370075355, -1.0373995633296047, -1.0381086011394534, -1.0623777525620728, -1.0853074916169752, -1.0953127879378532, -1.1202391038430528]",True,0.8000,0.6000,0.5000,0.1000,0.2000,0.0100,2.0000
51,go,Hit,1,1.0700,"[0.0, -0.013013902962816484, -0.021919132964773783, -0.0021078335031626157, -0.029956683975241958, 0.016796366438022414, 0.0391963195235759, 0.03503158094393617, 0.03336975737101079, 0.059467006555374735, 0.08361677464327189, 0.07563019251963443, 0.09397846892674616, 0.06829617408342573, 0.11169457479166636, 0.0986788842895981, 0.11571464291407682, 0.1221463968404608, 0.12232554985335475, 0.1375830529005095, 0.17478481721968708, 0.17560058499045228, 0.17653516325087454, 0.17896797473992798, 0.181315882334878, 0.21194587600333215, 0.22040177859348467, 0.21013155763113556, 0.18823355640387174, 0.17402506974359977, 0.19420021741769436, 0.1870641941862948, 0.19088997936143684, 0.21652275452775419, 0.24666832430766117, 0.25639261898757404, 0.2675272507795533, 0.28523014381296724, 0.2952629722150885, 0.27500978001779885, 0.2479007088922616, 0.22730890322017813, 0.23816390311577446, 0.2544916472132685, 0.2733838420668484, 0.2988234077998992, 0.2851355659062441, 0.28343108508782267, 0.2658740541561801, 0.2459446206759337, 0.2674827827397004, 0.25747034787912054, 0.26869020777331115, 0.2775579816409988, 0.2945673355822872, 0.29205462177973857, 0.2847724823673103, 0.3358001008594086, 0.3500737856833477, 0.3394561828352185, 0.33647893219332137, 0.3102464678608109, 0.3279456023533741, 0.32254128349383987, 0.3227979643553939, 0.3082347498763283, 0.2767061025102182, 0.32649255246519604, 0.35706623458110753, 0.3452421779107717, 0.3625495107197795, 0.3547843453960819, 0.3700275929923775, 0.3649080554589291, 0.3927388832135303, 0.3954343496956567, 0.4475344837134785, 0.42208675978064286, 0.41976802547653497, 0.3915922763563945, 0.39748848867948566, 0.3854716890721657, 0.4257583504929918, 0.4449960367779576, 0.4381517551188336, 0.42859414077486796, 0.45967589828930355, 0.41540214846532725, 0.45137058331464314, 0.4480429659843075, 0.4339546152990803, 0.41988028873043565, 0.41805685927117286, 0.4414435262426378, 0.45496716457942754, 0.4566251625302285, 0.46914990645711646, 0.5018560540201524]",False,0.8000,0.6000,0.5000,0.1000,0.2000,0.0100,2.0000
52,go,Hit,1,1.0400,"[0.0, 0.06609188897394812, 0.08015269295264581, 0.07648419538161408, 0.06918416986093912, 0.079816597748131, 0.09141220463354736, 0.09582343421225448, 0.12065339131841786, 0.13826751812036514, 0.1258618315808964, 0.14915290029053688, 0.17168050802301824, 0.18637706584822394, 0.20333702410504248, 0.21259692836249225, 0.22624425360082384, 0.2343695800998939, 0.2629388362299482, 0.24504946019878282, 0.2713144244729998, 0.29554142232434505, 0.2723470931280945, 0.23764411595467852, 0.1872013877249014, 0.2025347890158241, 0.20726698135720217, 0.19257914100845686, 0.18284336388122463, 0.17230752828259677, 0.18616274236582503, 0.1936324535581753, 0.20964283357387736, 0.23280016153836916, 0.24340555813790285, 0.24189462757683874, 0.23057216278427403, 0.26099967830085113, 0.2506873754435695, 0.2364946600426247, 0.26501628729429844, 0.26005597408365805, 0.21843257765994858, 0.17682442139253293, 0.22123743442454805, 0.21804664679423327, 0.2037499620891779, 0.19742673040225106, 0.20037460333476448, 0.20470271408714524, 0.19615913316223124, 0.1785434846697568, 0.15567326074548482, 0.1699450370660405, 0.1436126228006419, 0.15882723291221174, 0.13378866663331587, 0.11713651962352091, 0.13828765185756148, 0.16857957877468457, 0.18576951045532106, 0.18609351573367683, 0.18973299019336837, 0.16201984325380409, 0.17429539781441444, 0.18023869318160507, 0.21656021544842546, 0.23365297892492032, 0.22975593173855888, 0.21445810584860472, 0.24149434343975795, 0.2837769754182098, 0.30472609363185554, 0.28283716822054533, 0.30348731498208886, 0.3010656178816694, 0.3016081886279525, 0.30406792959795276, 0.3216918898721933, 0.3208394992056593, 0.3660463487148212, 0.36766619228072367, 0.4080690111418169, 0.4089731885709662, 0.4109120975128703, 0.40740407017727587, 0.4389258229212405, 0.4310774914034195, 0.43016236796313345, 0.4606356986012153, 0.469790588522834, 0.45336641498162306, 0.4716437901252564, 0.488708301901754, 0.5312949070925334]",False,0.8000,0.6000,0.5000,0.1000,0.2000,0.0100,2.0000
